Time,Device name,Chip Time(),Acceleration X(g),Acceleration Y(g),Acceleration Z(g),Angular velocity X(°/s),Angular velocity Y(°/s),Angular velocity Z(°/s),Angle X(°),Angle Y(°),Angle Z(°),Magnetic field X(ʯt),Magnetic field Y(ʯt),Magnetic field Z(ʯt),Temperature(℃),Pressure(Pa),Height(m),Longitude(),Latitude(),GPS ground speed(km),Angle of course(°),GPS height(m),Number of satellites(),Position location(),Horizontal position(),Vertical position(),Quaternions 0(),Quaternions 1(),Quaternions 2(),Quaternions 3()
 19:05:55.974,COM16, 2000-00-00 00:25:59.080, 0.134, 0.080, 0.980, -3.174, -1.282, 42.725, -1.351, -0.939, -18.100, -8.440, 23.827, -37.787, 31.32,,,,,,,,,,,,,,,,
 19:05:55.975,COM16, 2000-00-00 00:25:59.090, 0.134, -0.142, 1.017, -5.005, -8.240, 42.297, -1.417, -1.033, -17.650, -8.240, 23.740, -37.780, 31.33,,,,,,,,,,,,,,,,
 19:05:55.975,COM14, 2000-00-06 17:25:56.738, -0.113, -0.061, 1.018, 4.761, -0.732, 43.518, -0.829, 0.335, 12.266, -32.013, 18.240, -31.260, 31.51,,,,,,,,,,,,,,,,
 19:05:55.990,COM16, 2000-00-00 00:25:59.100, 0.004, -0.142, 1.017, -5.005, -8.240, 42.297, -1.489, -1.121, -17.194, -7.780, 23.680, -37.847, 31.33,,,,,,,,,,,,,,,,
 19:05:55.990,COM16, 2000-00-00 00:25:59.110, 0.004, -0.174, 1.018, 6.348, 2.625, 45.715, -1.445, -1.104, -16.710, -7.453, 23.627, -37.967, 31.34,,,,,,,,,,,,,,,,
 19:05:55.990,COM16, 2000-00-00 00:25:59.120, 0.081, -0.174, 1.018, 6.348, 2.625, 45.715, -1.406, -1.082, -16.232, -7.227, 23.567, -37.973, 31.34,,,,,,,,,,,,,,,,
 19:05:55.990,COM13, 2000-00-00 00:27:17.155, -0.051, 0.127, 0.915, -6.592, -2.014, 91.370, 2.395, 5.971, 85.913, -23.553, 89.160, -175.247, 31.27,,,,,,,,,,,,,,,,
 19:05:55.990,COM13, 2000-00-00 00:27:17.175, -0.051, -0.027, 0.926, -11.292, 4.883, 91.431, 2.379, 5.977, 87.742, -24.680, 86.680, -178.900, 31.29,,,,,,,,,,,,,,,,
 19:05:55.990,COM14, 2000-00-06 17:25:56.758, 0.078, -0.083, 0.892, 3.479, 0.427, 46.997, -0.791, 0.335, 13.206, -32.940, 19.153, -31.447, 31.51,,,,,,,,,,,,,,,,
 19:05:56.005,COM16, 2000-00-00 00:25:59.130, 0.081, -0.091, 1.031, 4.639, 5.920, 48.645, -1.384, -1.027, -15.727, -7.093, 23.533, -37.953, 31.33,,,,,,,,,,,,,,,,
 19:05:56.005,COM16, 2000-00-00 00:25:59.140, 0.094, -0.091, 1.031, 4.639, 5.920, 48.645, -1.368, -0.972, -15.222, -7.027, 23.513, -38.067, 31.33,,,,,,,,,,,,,,,,
 19:05:56.020,COM14, 2000-00-06 17:25:56.778, 0.137, -0.029, 0.919, 0.427, -1.465, 48.706, -0.813, 0.302, 14.178, -32.987, 19.747, -31.540, 31.51,,,,,,,,,,,,,,,,
 19:05:56.020,COM14, 2000-00-06 17:25:56.798, 0.018, 0.015, 1.033, 0.061, -3.906, 47.119, -0.829, 0.209, 15.123, -33.060, 20.620, -31.627, 31.49,,,,,,,,,,,,,,,,
 19:05:56.036,COM16, 2000-00-00 00:25:59.150, 0.094, 0.136, 0.976, -14.221, -10.315, 47.302, -1.527, -1.077, -14.722, -6.973, 23.500, -38.233, 31.32,,,,,,,,,,,,,,,,
 19:05:56.036,COM13, 2000-00-00 00:27:17.195, -0.053, -0.070, 1.014, -6.714, 6.897, 87.769, 2.351, 6.064, 89.544, -25.220, 83.820, -183.293, 31.26,,,,,,,,,,,,,,,,
 19:05:56.036,COM13, 2000-00-00 00:27:17.215, -0.108, 0.017, 1.031, -5.371, 4.822, 86.487, 2.373, 6.152, 91.291, -26.613, 81.407, -187.233, 31.32,,,,,,,,,,,,,,,,
 19:05:56.051,COM14, 2000-00-06 17:25:56.818, 0.078, -0.078, 1.026, 0.488, -2.380, 46.143, -0.840, 0.143, 16.046, -33.353, 21.300, -31.740, 31.50,,,,,,,,,,,,,,,,
 19:05:56.051,COM14, 2000-00-06 17:25:56.838, 0.156, -0.139, 0.981, 1.526, -0.610, 45.410, -0.846, 0.110, 16.952, -33.713, 22.133, -31.740, 31.49,,,,,,,,,,,,,,,,
 19:05:56.051,COM16, 2000-00-00 00:25:59.160, 0.052, 0.136, 0.976, -14.221, -10.315, 47.302, -1.686, -1.187, -14.222, -6.913, 24.067, -38.327, 31.32,,,,,,,,,,,,,,,,
 19:05:56.051,COM16, 2000-00-00 00:25:59.170, 0.052, -0.030, 0.968, -11.047, -8.179, 45.959, -1.807, -1.269, -13.738, -6.907, 24.487, -38.340, 31.33,,,,,,,,,,,,,,,,
 19:05:56.051,COM16, 2000-00-00 00:25:59.180, 0.038, -0.030, 0.968, -11.047, -8.179, 45.959, -1.928, -1.346, -13.255, -6.927, 24.847, -38.420, 31.33,,,,,,,,,,,,,,,,
 19:05:56.067,COM16, 2000-00-00 00:25:59.190, 0.038, -0.062, 1.031, 6.592, 5.676, 45.898, -1.873, -1.291, -12.783, -6.993, 25.173, -38.507, 31.34,,,,,,,,,,,,,,,,
 19:05:56.067,COM16, 2000-00-00 00:25:59.200, 0.035, -0.062, 1.031, 6.592, 5.676, 45.898, -1.818, -1.230, -12.310, -6.753, 25.433, -38.493, 31.34,,,,,,,,,,,,,,,,
 19:05:56.067,COM13, 2000-00-00 00:27:17.235, -0.096, 0.014, 1.006, -4.944, 1.953, 86.365, 2.411, 6.191, 93.021, -27.527, 78.307, -191.040, 31.29,,,,,,,,,,,,,,,,
 19:05:56.067,COM13, 2000-00-00 00:27:17.255, -0.062, -0.078, 1.030, -4.944, 0.427, 82.214, 2.450, 6.185, 94.713, -27.920, 74.353, -194.807, 31.28,,,,,,,,,,,,,,,,
 19:05:56.083,COM14, 2000-00-06 17:25:56.858, 0.012, -0.071, 1.074, 1.953, -0.366, 43.396, -0.840, 0.071, 17.820, -33.700, 23.353, -31.733, 31.48,,,,,,,,,,,,,,,,
 19:05:56.098,COM16, 2000-00-00 00:25:59.210, 0.035, -0.005, 1.012, 3.479, 3.052, 44.495, -1.791, -1.198, -11.854, -6.260, 25.033, -38.460, 31.38,,,,,,,,,,,,,,,,
 19:05:56.098,COM14, 2000-00-06 17:25:56.878, -0.074, -0.058, 1.081, 4.333, -0.305, 41.931, -0.786, 0.038, 18.655, -33.813, 24.200, -32.000, 31.49,,,,,,,,,,,,,,,,
 19:05:56.098,COM13, 2000-00-00 00:27:17.275, -0.047, 0.047, 1.039, 1.526, -3.174, 82.092, 2.538, 6.130, 96.361, -29.287, 71.400, -197.780, 31.29,,,,,,,,,,,,,,,,
 19:05:56.113,COM16, 2000-00-00 00:25:59.220, 0.034, -0.005, 1.012, 3.479, 3.052, 44.495, -1.769, -1.165, -11.393, -5.867, 24.707, -38.507, 31.38,,,,,,,,,,,,,,,,
 19:05:56.113,COM16, 2000-00-00 00:25:59.230, 0.034, 0.058, 0.989, -6.714, -5.066, 41.931, -1.840, -1.214, -10.953, -5.607, 25.027, -38.573, 31.37,,,,,,,,,,,,,,,,
 19:05:56.113,COM16, 2000-00-00 00:25:59.240, 0.117, 0.058, 0.989, -6.714, -5.066, 41.931, -1.912, -1.258, -10.514, -5.420, 25.240, -38.580, 31.37,,,,,,,,,,,,,,,,
 19:05:56.113,COM14, 2000-00-06 17:25:56.898, -0.026, -0.064, 0.955, 5.310, -0.061, 45.105, -0.720, 0.016, 19.556, -33.660, 25.300, -32.160, 31.52,,,,,,,,,,,,,,,,
 19:05:56.128,COM13, 2000-00-00 00:27:17.295, -0.049, 0.154, 1.008, -4.883, -4.944, 85.693, 2.637, 6.021, 98.042, -29.647, 67.053, -200.560, 31.27,,,,,,,,,,,,,,,,
 19:05:56.128,COM13, 2000-00-00 00:27:17.315, -0.030, 0.106, 0.883, -8.667, -0.916, 90.027, 2.653, 5.927, 99.800, -30.607, 62.960, -203.307, 31.27,,,,,,,,,,,,,,,,
 19:05:56.128,COM16, 2000-00-00 00:25:59.250, 0.117, -0.227, 0.976, -0.122, -4.456, 43.396, -1.917, -1.296, -10.063, -5.280, 25.447, -38.600, 31.32,,,,,,,,,,,,,,,,
 19:05:56.144,COM16, 2000-00-00 00:25:59.260, 0.086, -0.227, 0.976, -0.122, -4.456, 43.396, -1.934, -1.340, -9.608, -5.180, 25.647, -38.693, 31.32,,,,,,,,,,,,,,,,
 19:05:56.144,COM16, 2000-00-00 00:25:59.270, 0.086, -0.180, 1.008, 7.263, 4.089, 47.302, -1.879, -1.296, -9.113, -5.133, 25.733, -38.800, 31.34,,,,,,,,,,,,,,,,
 19:05:56.144,COM16, 2000-00-00 00:25:59.280, 0.074, -0.180, 1.008, 7.263, 4.089, 47.302, -1.829, -1.252, -8.624, -5.120, 25.787, -38.867, 31.34,,,,,,,,,,,,,,,,
 19:05:56.144,COM14, 2000-00-06 17:25:56.918, 0.034, -0.071, 0.926, 2.869, 0.427, 48.401, -0.698, 0.022, 20.522, -33.820, 26.007, -32.247, 31.52,,,,,,,,,,,,,,,,
 19:05:56.160,COM16, 2000-00-00 00:25:59.290, 0.074, -0.006, 1.001, 0.061, 0.244, 49.316, -1.851, -1.252, -8.119, -5.160, 25.833, -38.927, 31.34,,,,,,,,,,,,,,,,
 19:05:56.160,COM16, 2000-00-00 00:25:59.300, 0.033, -0.006, 1.001, 0.061, 0.244, 49.316, -1.868, -1.247, -7.614, -5.213, 25.880, -38.927, 31.34,,,,,,,,,,,,,,,,
 19:05:56.160,COM14, 2000-00-06 17:25:56.938, 0.057, -0.007, 0.893, 0.732, -2.563, 49.133, -0.714, -0.027, 21.506, -34.100, 27.233, -32.160, 31.49,,,,,,,,,,,,,,,,
 19:05:56.161,COM13, 2000-00-00 00:27:17.335, -0.054, -0.042, 0.942, -10.681, 5.493, 89.294, 2.620, 5.938, 101.602, -31.573, 58.507, -206.093, 31.27,,,,,,,,,,,,,,,,
 19:05:56.161,COM13, 2000-00-00 00:27:17.355, -0.076, -0.005, 0.981, -6.592, 8.911, 88.806, 2.598, 6.042, 103.387, -32.440, 53.540, -208.793, 31.30,,,,,,,,,,,,,,,,
 19:05:56.191,COM13, 2000-00-00 00:27:17.375, -0.113, -0.012, 1.066, -5.310, 6.287, 87.830, 2.626, 6.158, 105.161, -33.380, 48.367, -211.313, 31.30,,,,,,,,,,,,,,,,
 19:05:56.191,COM14, 2000-00-06 17:25:56.958, 0.081, -0.030, 1.010, -0.427, -3.601, 48.096, -0.753, -0.110, 22.467, -33.907, 28.020, -32.127, 31.49,,,,,,,,,,,,,,,,
 19:05:56.191,COM16, 2000-00-00 00:25:59.310, 0.033, 0.091, 1.019, -16.357, -10.681, 47.913, -2.049, -1.351, -7.125, -5.267, 25.887, -38.853, 31.30,,,,,,,,,,,,,,,,
 19:05:56.191,COM16, 2000-00-00 00:25:59.320, 0.042, 0.091, 1.019, -16.357, -10.681, 47.913, -2.219, -1.450, -6.641, -5.327, 25.880, -38.847, 31.30,,,,,,,,,,,,,,,,
 19:05:56.206,COM13, 2000-00-00 00:27:17.395, -0.081, -0.022, 1.055, -5.676, 0.244, 84.106, 2.659, 6.185, 106.886, -33.693, 42.573, -213.240, 31.28,,,,,,,,,,,,,,,,
 19:05:56.206,COM16, 2000-00-00 00:25:59.330, 0.042, -0.025, 1.022, -5.676, -2.930, 47.180, -2.285, -1.467, -6.169, -5.393, 25.873, -38.900, 31.34,,,,,,,,,,,,,,,,
 19:05:56.207,COM16, 2000-00-00 00:25:59.340, 0.060, -0.025, 1.022, -5.676, -2.930, 47.180, -2.351, -1.489, -5.696, -4.860, 25.900, -38.947, 31.34,,,,,,,,,,,,,,,,
 19:05:56.207,COM16, 2000-00-00 00:25:59.350, 0.060, 0.010, 0.991, 9.949, 8.850, 46.387, -2.258, -1.390, -5.235, -4.467, 25.960, -38.960, 31.34,,,,,,,,,,,,,,,,
 19:05:56.222,COM14, 2000-00-06 17:25:56.978, 0.118, -0.065, 1.059, -0.427, -1.831, 47.180, -0.791, -0.154, 23.412, -33.200, 28.873, -32.207, 31.48,,,,,,,,,,,,,,,,
 19:05:56.222,COM14, 2000-00-06 17:25:56.998, 0.091, -0.101, 1.060, 2.441, -0.671, 45.227, -0.780, -0.187, 24.313, -32.713, 29.980, -32.080, 31.49,,,,,,,,,,,,,,,,
 19:05:56.238,COM13, 2000-00-00 00:27:17.415, -0.055, -0.069, 0.985, -3.784, -1.831, 80.200, 2.692, 6.136, 108.528, -33.287, 36.447, -214.680, 31.29,,,,,,,,,,,,,,,,
 19:05:56.253,COM14, 2000-00-06 17:25:57.018, -0.056, -0.091, 1.033, 3.784, -0.916, 41.870, -0.742, -0.231, 25.148, -32.573, 30.807, -32.280, 31.51,,,,,,,,,,,,,,,,
 19:05:56.253,COM14, 2000-00-06 17:25:57.038, 0.004, -0.135, 1.012, 3.113, 0.366, 41.687, -0.725, -0.242, 25.983, -32.467, 31.693, -32.373, 31.49,,,,,,,,,,,,,,,,
 19:05:56.269,COM13, 2000-00-00 00:27:17.435, -0.048, 0.191, 1.006, 0.549, -1.831, 84.045, 2.785, 6.064, 110.176, -35.693, 32.087, -215.520, 31.28,,,,,,,,,,,,,,,,
 19:05:56.269,COM13, 2000-00-00 00:27:17.455, -0.051, 0.042, 1.021, -8.606, -4.639, 86.975, 2.845, 5.960, 111.890, -34.580, 25.467, -215.300, 31.32,,,,,,,,,,,,,,,,
 19:05:56.284,COM14, 2000-00-06 17:25:57.058, 0.059, -0.027, 0.982, 4.761, 1.343, 45.349, -0.676, -0.225, 26.889, -31.780, 32.480, -32.280, 31.52,,,,,,,,,,,,,,,,
 19:05:56.300,COM16, 2000-00-00 00:25:59.360, -0.059, 0.010, 0.991, 9.949, 8.850, 46.387, -2.164, -1.296, -4.774, -4.160, 26.020, -38.993, 31.34,,,,,,,,,,,,,,,,
 19:05:56.300,COM16, 2000-00-00 00:25:59.370, -0.059, 0.087, 0.961, -0.488, -1.404, 43.335, -2.164, -1.296, -4.340, -3.940, 26.067, -39.093, 31.32,,,,,,,,,,,,,,,,
 19:05:56.300,COM14, 2000-00-06 17:25:57.078, -0.036, -0.032, 0.977, 3.540, -0.427, 45.776, -0.648, -0.247, 27.801, -30.707, 33.367, -32.060, 31.50,,,,,,,,,,,,,,,,
 19:05:56.300,COM13, 2000-00-00 00:27:17.475, -0.007, 0.011, 0.919, -6.165, -1.160, 87.585, 2.845, 5.867, 113.637, -34.480, 19.273, -214.400, 31.30,,,,,,,,,,,,,,,,
 19:05:56.300,COM13, 2000-00-00 00:27:17.495, -0.055, 0.069, 0.917, -5.432, 4.517, 87.646, 2.873, 5.856, 115.395, -34.800, 13.633, -213.720, 31.30,,,,,,,,,,,,,,,,
 19:05:56.316,COM16, 2000-00-00 00:25:59.380, 0.032, 0.087, 0.961, -0.488, -1.404, 43.335, -2.170, -1.302, -3.911, -3.753, 26.020, -39.147, 31.32,,,,,,,,,,,,,,,,
 19:05:56.316,COM16, 2000-00-00 00:25:59.390, 0.032, -0.105, 1.024, -17.334, -16.113, 40.405, -2.340, -1.450, -3.505, -3.600, 25.900, -39.133, 31.35,,,,,,,,,,,,,,,,
 19:05:56.316,COM16, 2000-00-00 00:25:59.400, 0.148, -0.105, 1.024, -17.334, -16.113, 40.405, -2.516, -1.593, -3.104, -3.540, 25.807, -39.087, 31.35,,,,,,,,,,,,,,,,
 19:05:56.331,COM16, 2000-00-00 00:25:59.410, 0.148, -0.264, 1.026, 13.000, 7.874, 44.434, -2.390, -1.500, -2.670, -3.527, 25.820, -39.113, 31.35,,,,,,,,,,,,,,,,
 19:05:56.331,COM16, 2000-00-00 00:25:59.420, 0.053, -0.264, 1.026, 13.000, 7.874, 44.434, -2.280, -1.412, -2.236, -3.540, 25.833, -39.100, 31.35,,,,,,,,,,,,,,,,
 19:05:56.331,COM13, 2000-00-00 00:27:17.515, -0.095, 0.061, 0.975, -9.644, 10.132, 90.332, 2.873, 5.955, 117.180, -34.567, 6.900, -212.233, 31.30,,,,,,,,,,,,,,,,
 19:05:56.332,COM14, 2000-00-06 17:25:57.098, 0.008, -0.042, 0.852, 1.892, -3.174, 45.410, -0.648, -0.319, 28.707, -30.193, 34.180, -31.907, 31.53,,,,,,,,,,,,,,,,
 19:05:56.347,COM16, 2000-00-00 00:25:59.430, 0.053, 0.014, 0.951, 12.451, 9.583, 46.204, -2.170, -1.307, -1.785, -3.580, 25.833, -39.120, 31.34,,,,,,,,,,,,,,,,
 19:05:56.347,COM16, 2000-00-00 00:25:59.440, 0.000, 0.014, 0.951, 12.451, 9.583, 46.204, -2.060, -1.203, -1.340, -3.633, 25.847, -39.200, 31.34,,,,,,,,,,,,,,,,
 19:05:56.347,COM16, 2000-00-00 00:25:59.450, 0.000, 0.091, 1.012, -15.930, -14.038, 44.922, -2.225, -1.335, -0.901, -3.680, 25.820, -39.227, 31.33,,,,,,,,,,,,,,,,
 19:05:56.347,COM16, 2000-00-00 00:25:59.460, 0.126, 0.091, 1.012, -15.930, -14.038, 44.922, -2.390, -1.461, -0.461, -3.433, 25.727, -39.213, 31.33,,,,,,,,,,,,,,,,
 19:05:56.362,COM16, 2000-00-00 00:25:59.470, 0.126, -0.216, 1.029, -9.277, -5.371, 46.143, -2.488, -1.500, -0.016, -3.220, 25.640, -39.307, 31.36,,,,,,,,,,,,,,,,
 19:05:56.362,COM16, 2000-00-00 00:25:59.480, 0.022, -0.216, 1.029, -9.277, -5.371, 46.143, -2.598, -1.544, 0.434, -2.787, 25.620, -39.393, 31.36,,,,,,,,,,,,,,,,
 19:05:56.362,COM16, 2000-00-00 00:25:59.490, 0.022, 0.047, 1.007, 9.888, 12.085, 47.729, -2.510, -1.406, 0.895, -2.473, 25.627, -39.353, 31.34,,,,,,,,,,,,,,,,
 19:05:56.362,COM13, 2000-00-00 00:27:17.535, -0.111, -0.040, 1.041, -7.019, 7.813, 89.539, 2.862, 6.081, 118.987, -35.600, 0.987, -211.000, 31.30,,,,,,,,,,,,,,,,
 19:05:56.362,COM14, 2000-00-06 17:25:57.118, 0.102, -0.043, 0.988, -1.831, -1.892, 47.791, -0.725, -0.357, 29.663, -29.293, 34.833, -31.747, 31.46,,,,,,,,,,,,,,,,
 19:05:56.363,COM14, 2000-00-06 17:25:57.138, 0.108, -0.089, 1.038, -0.916, -1.892, 46.570, -0.780, -0.396, 30.597, -28.720, 35.740, -31.473, 31.50,,,,,,,,,,,,,,,,
 19:05:56.378,COM16, 2000-00-00 00:25:59.500, -0.021, 0.047, 1.007, 9.888, 12.085, 47.729, -2.422, -1.274, 1.357, -2.300, 25.640, -39.300, 31.34,,,,,,,,,,,,,,,,
 19:05:56.378,COM16, 2000-00-00 00:25:59.510, -0.021, 0.095, 0.961, -9.338, -7.080, 44.189, -2.516, -1.335, 1.791, -2.160, 25.640, -39.173, 31.34,,,,,,,,,,,,,,,,
 19:05:56.378,COM13, 2000-00-00 00:27:17.555, -0.080, -0.015, 1.071, -6.958, 2.380, 84.717, 2.867, 6.141, 120.734, -35.920, -5.127, -208.933, 31.32,,,,,,,,,,,,,,,,
 19:05:56.393,COM14, 2000-00-06 17:25:57.158, 0.025, -0.100, 1.105, 2.136, -2.747, 43.152, -0.780, -0.467, 31.459, -27.707, 36.220, -31.107, 31.49,,,,,,,,,,,,,,,,
 19:05:56.393,COM14, 2000-00-06 17:25:57.178, 0.006, -0.144, 1.041, 3.784, 0.122, 41.260, -0.758, -0.478, 32.283, -26.827, 36.433, -31.093, 31.53,,,,,,,,,,,,,,,,
 19:05:56.409,COM16, 2000-00-00 00:25:59.520, -0.015, 0.095, 0.961, -9.338, -7.080, 44.189, -2.609, -1.390, 2.214, -2.020, 25.640, -38.973, 31.34,,,,,,,,,,,,,,,,
 19:05:56.409,COM13, 2000-00-00 00:27:17.575, -0.040, 0.049, 1.025, -4.761, -2.808, 85.022, 2.889, 6.097, 122.437, -36.293, -11.013, -206.393, 31.29,,,,,,,,,,,,,,,,
 19:05:56.409,COM13, 2000-00-00 00:27:17.595, -0.073, 0.050, 0.994, -5.188, -3.601, 87.097, 2.933, 5.993, 124.162, -37.360, -15.727, -203.287, 31.30,,,,,,,,,,,,,,,,
 19:05:56.424,COM14, 2000-00-06 17:25:57.198, 0.086, -0.090, 0.993, 4.089, 1.343, 40.833, -0.731, -0.461, 33.096, -25.820, 36.807, -30.747, 31.50,,,,,,,,,,,,,,,,
 19:05:56.424,COM16, 2000-00-00 00:25:59.530, -0.015, -0.054, 0.993, -14.282, -13.184, 41.504, -2.747, -1.500, 2.615, -1.920, 25.613, -38.833, 31.37,,,,,,,,,,,,,,,,
 19:05:56.424,COM16, 2000-00-00 00:25:59.540, 0.031, -0.054, 0.993, -14.282, -13.184, 41.504, -2.889, -1.615, 3.010, -1.873, 25.560, -38.793, 31.37,,,,,,,,,,,,,,,,
 19:05:56.424,COM16, 2000-00-00 00:25:59.550, 0.031, -0.131, 1.048, 9.583, 5.798, 41.138, -2.796, -1.533, 3.389, -1.893, 25.533, -38.747, 31.36,,,,,,,,,,,,,,,,
 19:05:56.440,COM16, 2000-00-00 00:25:59.560, -0.016, -0.131, 1.048, 9.583, 5.798, 41.138, -2.708, -1.456, 3.763, -1.960, 25.527, -38.820, 31.36,,,,,,,,,,,,,,,,
 19:05:56.440,COM13, 2000-00-00 00:27:17.615, -0.017, -0.039, 0.962, -6.226, -2.136, 84.656, 2.955, 5.894, 125.881, -36.727, -21.187, -198.693, 31.32,,,,,,,,,,,,,,,,
 19:05:56.440,COM13, 2000-00-00 00:27:17.635, -0.013, 0.050, 0.965, -2.502, 1.709, 84.412, 2.994, 5.850, 127.573, -35.800, -26.613, -193.727, 31.30,,,,,,,,,,,,,,,,
 19:05:56.440,COM14, 2000-00-06 17:25:57.218, 0.014, -0.014, 0.933, 3.784, 0.366, 39.734, -0.703, -0.472, 33.893, -24.527, 36.953, -30.233, 31.49,,,,,,,,,,,,,,,,
 19:05:56.471,COM13, 2000-00-00 00:27:17.655, -0.089, 0.100, 0.943, -3.113, 5.371, 88.806, 3.076, 5.872, 129.309, -36.547, -30.887, -189.507, 31.30,,,,,,,,,,,,,,,,
 19:05:56.471,COM14, 2000-00-06 17:25:57.238, -0.030, -0.009, 0.981, 2.380, -1.587, 38.757, -0.698, -0.516, 34.667, -23.400, 37.047, -29.880, 31.45,,,,,,,,,,,,,,,,
 19:05:56.471,COM14, 2000-00-06 17:25:57.258, 0.034, -0.067, 0.975, 0.122, -0.916, 41.382, -0.736, -0.538, 35.491, -22.927, 37.047, -29.600, 31.49,,,,,,,,,,,,,,,,
 19:05:56.502,COM16, 2000-00-00 00:25:59.570, -0.016, 0.078, 0.952, 10.925, 7.019, 40.894, -2.598, -1.362, 4.131, -2.013, 25.520, -39.007, 31.35,,,,,,,,,,,,,,,,
 19:05:56.502,COM16, 2000-00-00 00:25:59.580, 0.036, 0.078, 0.952, 10.925, 7.019, 40.894, -2.488, -1.274, 4.493, -2.060, 25.520, -39.180, 31.35,,,,,,,,,,,,,,,,
 19:05:56.502,COM13, 2000-00-00 00:27:17.675, -0.081, 0.037, 0.982, -9.460, 6.958, 87.402, 3.098, 5.938, 131.078, -35.707, -35.887, -183.667, 31.29,,,,,,,,,,,,,,,,
 19:05:56.502,COM14, 2000-00-06 17:25:57.278, 0.063, -0.125, 0.903, 0.122, -2.380, 41.016, -0.786, -0.588, 36.310, -21.087, 37.380, -28.987, 31.48,,,,,,,,,,,,,,,,
 19:05:56.518,COM16, 2000-00-00 00:25:59.590, 0.036, 0.047, 0.990, -8.423, -7.629, 38.391, -2.571, -1.335, 4.834, -1.767, 25.487, -39.327, 31.37,,,,,,,,,,,,,,,,
 19:05:56.518,COM16, 2000-00-00 00:25:59.600, 0.120, 0.047, 0.990, -8.423, -7.629, 38.391, -2.648, -1.390, 5.186, -1.560, 25.747, -39.487, 31.37,,,,,,,,,,,,,,,,
 19:05:56.518,COM16, 2000-00-00 00:25:59.610, 0.120, -0.144, 1.081, -4.944, -3.662, 39.795, -2.697, -1.406, 5.554, -1.073, 25.920, -39.560, 31.32,,,,,,,,,,,,,,,,
 19:05:56.518,COM16, 2000-00-00 00:25:59.620, 0.012, -0.144, 1.081, -4.944, -3.662, 39.795, -2.747, -1.428, 5.927, -0.693, 26.047, -39.553, 31.32,,,,,,,,,,,,,,,,
 19:05:56.533,COM16, 2000-00-00 00:25:59.630, 0.012, -0.062, 0.970, 8.362, 6.714, 41.931, -2.664, -1.346, 6.323, -0.440, 25.847, -39.607, 31.37,,,,,,,,,,,,,,,,
 19:05:56.533,COM16, 2000-00-00 00:25:59.640, -0.083, -0.062, 0.970, 8.362, 6.714, 41.931, -2.587, -1.263, 6.713, -0.273, 26.013, -39.667, 31.37,,,,,,,,,,,,,,,,
 19:05:56.533,COM16, 2000-00-00 00:25:59.650, -0.083, 0.040, 0.946, -11.353, -4.883, 39.185, -2.697, -1.291, 7.081, -0.127, 26.447, -39.673, 31.34,,,,,,,,,,,,,,,,
 19:05:56.533,COM13, 2000-00-00 00:27:17.695, -0.063, 0.030, 1.004, -7.446, 7.507, 86.914, 3.082, 6.031, 132.830, -35.087, -40.593, -178.080, 31.28,,,,,,,,,,,,,,,,
 19:05:56.534,COM13, 2000-00-00 00:27:17.715, -0.083, 0.043, 1.083, -8.728, 2.197, 88.013, 3.065, 6.048, 134.588, -34.853, -44.427, -172.380, 31.30,,,,,,,,,,,,,,,,
 19:05:56.549,COM16, 2000-00-00 00:25:59.660, 0.099, 0.040, 0.946, -11.353, -4.883, 39.185, -2.813, -1.318, 7.438, -0.020, 26.760, -39.680, 31.34,,,,,,,,,,,,,,,,
 19:05:56.549,COM16, 2000-00-00 00:25:59.670, 0.099, -0.125, 1.070, -9.705, -8.728, 38.452, -2.906, -1.384, 7.795, 0.020, 26.973, -39.693, 31.31,,,,,,,,,,,,,,,,
 19:05:56.564,COM13, 2000-00-00 00:27:17.735, -0.066, -0.010, 0.975, -9.277, -0.610, 86.609, 3.032, 6.004, 136.329, -33.840, -47.873, -165.800, 31.29,,,,,,,,,,,,,,,,
 19:05:56.564,COM13, 2000-00-00 00:27:17.755, -0.055, -0.029, 0.973, -5.859, 0.122, 83.862, 3.032, 5.955, 138.027, -32.733, -50.767, -159.067, 31.32,,,,,,,,,,,,,,,,
 19:05:56.595,COM16, 2000-00-00 00:25:59.680, -0.065, -0.125, 1.070, -9.705, -8.728, 38.452, -3.010, -1.450, 8.146, 0.047, 27.160, -39.680, 31.31,,,,,,,,,,,,,,,,
 19:05:56.595,COM16, 2000-00-00 00:25:59.690, -0.065, 0.000, 0.958, 5.554, 5.005, 37.903, -2.955, -1.379, 8.487, 0.060, 27.340, -39.667, 31.36,,,,,,,,,,,,,,,,
 19:05:56.595,COM14, 2000-00-06 17:25:57.298, 0.027, -0.096, 1.104, -0.610, -2.563, 38.940, -0.846, -0.648, 37.090, -19.900, 37.553, -28.580, 31.52,,,,,,,,,,,,,,,,
 19:05:56.595,COM14, 2000-00-06 17:25:57.318, 0.083, -0.120, 1.014, 1.465, -0.977, 38.757, -0.873, -0.670, 37.864, -18.980, 36.740, -27.960, 31.46,,,,,,,,,,,,,,,,
 19:05:56.595,COM14, 2000-00-06 17:25:57.338, 0.050, -0.066, 1.118, 2.991, -0.427, 36.682, -0.868, -0.687, 38.600, -17.253, 35.973, -27.340, 31.50,,,,,,,,,,,,,,,,
 19:05:56.596,COM13, 2000-00-00 00:27:17.775, -0.069, 0.036, 1.022, -1.526, 1.587, 85.083, 3.109, 5.933, 139.724, -32.440, -52.833, -153.220, 31.26,,,,,,,,,,,,,,,,
 19:05:56.610,COM13, 2000-00-00 00:27:17.795, -0.063, 0.048, 1.038, -4.456, -1.404, 85.632, 3.164, 5.872, 141.438, -31.553, -54.693, -146.300, 31.28,,,,,,,,,,,,,,,,
 19:05:56.610,COM14, 2000-00-06 17:25:57.358, 0.017, -0.086, 0.902, 2.319, -0.671, 33.630, -0.873, -0.709, 39.271, -16.060, 35.240, -26.940, 31.50,,,,,,,,,,,,,,,,
 19:05:56.610,COM14, 2000-00-06 17:25:57.378, 0.057, -0.105, 0.980, 2.014, -0.671, 30.884, -0.890, -0.731, 39.886, -15.427, 34.473, -26.713, 31.49,,,,,,,,,,,,,,,,
 19:05:56.611,COM16, 2000-00-00 00:25:59.700, -0.024, 0.000, 0.958, 5.554, 5.005, 37.903, -2.900, -1.307, 8.817, 0.033, 27.513, -39.627, 31.36,,,,,,,,,,,,,,,,
 19:05:56.611,COM16, 2000-00-00 00:25:59.710, -0.024, 0.120, 1.041, -0.916, -2.380, 35.278, -2.906, -1.307, 9.124, -0.020, 27.647, -39.573, 31.34,,,,,,,,,,,,,,,,
 19:05:56.611,COM16, 2000-00-00 00:25:59.720, -0.125, 0.120, 1.041, -0.916, -2.380, 35.278, -2.906, -1.307, 9.421, -0.093, 27.720, -39.500, 31.34,,,,,,,,,,,,,,,,
 19:05:56.626,COM14, 2000-00-06 17:25:57.398, 0.067, -0.074, 1.067, 2.991, 0.854, 30.518, -0.884, -0.725, 40.496, -14.107, 33.533, -26.240, 31.50,,,,,,,,,,,,,,,,
 19:05:56.641,COM14, 2000-00-06 17:25:57.418, -0.027, -0.053, 1.012, 3.174, -0.061, 29.602, -0.873, -0.742, 41.089, -13.040, 32.673, -25.693, 31.50,,,,,,,,,,,,,,,,
 19:05:56.641,COM13, 2000-00-00 00:27:17.815, 0.000, 0.029, 0.953, -6.226, -2.136, 83.374, 3.181, 5.784, 143.119, -30.400, -56.107, -138.873, 31.30,,,,,,,,,,,,,,,,
 19:05:56.641,COM13, 2000-00-00 00:27:17.835, -0.058, 0.084, 0.943, -4.089, 2.136, 85.876, 3.219, 5.757, 144.827, -29.653, -56.940, -132.853, 31.28,,,,,,,,,,,,,,,,
 19:05:56.641,COM16, 2000-00-00 00:25:59.730, -0.125, 0.030, 0.957, -5.981, -6.165, 31.555, -2.950, -1.340, 9.679, -0.133, 27.767, -39.480, 31.33,,,,,,,,,,,,,,,,
 19:05:56.641,COM16, 2000-00-00 00:25:59.740, 0.038, 0.030, 0.957, -5.981, -6.165, 31.555, -2.994, -1.373, 9.926, -0.187, 27.793, -39.520, 31.33,,,,,,,,,,,,,,,,
 19:05:56.641,COM16, 2000-00-00 00:25:59.750, 0.038, -0.108, 1.017, 6.348, 4.822, 30.701, -2.922, -1.296, 10.168, 0.367, 27.820, -39.507, 31.34,,,,,,,,,,,,,,,,
 19:05:56.657,COM16, 2000-00-00 00:25:59.760, 0.019, -0.108, 1.017, 6.348, 4.822, 30.701, -2.845, -1.219, 10.410, 0.807, 27.847, -39.427, 31.34,,,,,,,,,,,,,,,,
 19:05:56.657,COM16, 2000-00-00 00:25:59.770, 0.019, 0.013, 0.985, 4.395, 2.014, 30.212, -2.796, -1.176, 10.657, 1.147, 27.880, -39.353, 31.34,,,,,,,,,,,,,,,,
 19:05:56.657,COM16, 2000-00-00 00:25:59.780, 0.047, 0.013, 0.985, 4.395, 2.014, 30.212, -2.741, -1.132, 10.909, 1.407, 27.933, -39.327, 31.34,,,,,,,,,,,,,,,,
 19:05:56.673,COM16, 2000-00-00 00:25:59.790, 0.047, -0.047, 0.985, -6.836, -7.751, 29.236, -2.802, -1.187, 11.157, 1.593, 27.967, -39.280, 31.34,,,,,,,,,,,,,,,,
 19:05:56.673,COM16, 2000-00-00 00:25:59.800, -0.062, -0.047, 0.985, -6.836, -7.751, 29.236, -2.862, -1.247, 11.409, 1.713, 27.967, -39.180, 31.34,,,,,,,,,,,,,,,,
 19:05:56.673,COM14, 2000-00-06 17:25:57.438, 0.002, -0.096, 0.885, 2.380, -1.892, 29.602, -0.879, -0.786, 41.677, -12.740, 32.147, -25.653, 31.51,,,,,,,,,,,,,,,,
 19:05:56.673,COM14, 2000-00-06 17:25:57.458, 0.102, -0.162, 0.955, -1.282, -0.061, 29.419, -0.967, -0.791, 42.264, -12.113, 30.633, -25.287, 31.51,,,,,,,,,,,,,,,,
 19:05:56.674,COM13, 2000-00-00 00:27:17.855, -0.091, 0.088, 0.939, -8.728, 7.141, 87.830, 3.214, 5.817, 146.580, -29.233, -57.367, -126.153, 31.30,,,,,,,,,,,,,,,,
 19:05:56.688,COM16, 2000-00-00 00:25:59.810, -0.062, -0.149, 1.040, -2.869, -1.221, 29.602, -2.889, -1.236, 11.662, 1.787, 27.933, -39.113, 31.34,,,,,,,,,,,,,,,,
 19:05:56.688,COM16, 2000-00-00 00:25:59.820, -0.025, -0.149, 1.040, -2.869, -1.221, 29.602, -2.917, -1.219, 11.904, 1.847, 27.900, -39.167, 31.34,,,,,,,,,,,,,,,,
 19:05:56.688,COM16, 2000-00-00 00:25:59.830, -0.025, 0.036, 0.987, 6.348, 8.240, 28.625, -2.851, -1.115, 12.134, 1.867, 27.893, -39.240, 31.34,,,,,,,,,,,,,,,,
 19:05:56.704,COM13, 2000-00-00 00:27:17.875, -0.079, -0.036, 1.062, -8.545, 5.981, 85.693, 3.181, 5.889, 148.310, -28.047, -57.427, -119.560, 31.26,,,,,,,,,,,,,,,,
 19:05:56.704,COM14, 2000-00-06 17:25:57.478, 0.082, -0.032, 0.984, -0.122, -1.526, 27.222, -1.027, -0.824, 42.808, -11.527, 29.513, -25.227, 31.49,,,,,,,,,,,,,,,,
 19:05:56.704,COM14, 2000-00-06 17:25:57.498, 0.018, -0.061, 1.140, 1.892, -0.854, 24.902, -1.044, -0.857, 43.308, -10.447, 28.100, -25.213, 31.51,,,,,,,,,,,,,,,,
 19:05:56.720,COM13, 2000-00-00 00:27:17.895, -0.047, 0.000, 1.063, -7.019, 0.244, 83.679, 3.170, 5.872, 149.996, -26.787, -57.060, -112.773, 31.30,,,,,,,,,,,,,,,,
 19:05:56.736,COM14, 2000-00-06 17:25:57.518, 0.039, -0.097, 0.981, 3.479, 0.488, 22.644, -1.022, -0.857, 43.759, -10.220, 27.033, -25.307, 31.52,,,,,,,,,,,,,,,,
 19:05:56.736,COM16, 2000-00-00 00:25:59.840, -0.019, 0.036, 0.987, 6.348, 8.240, 28.625, -2.785, -1.011, 12.360, 1.833, 27.893, -39.260, 31.34,,,,,,,,,,,,,,,,
 19:05:56.736,COM16, 2000-00-00 00:25:59.850, -0.019, 0.078, 0.922, -8.606, -7.080, 25.513, -2.862, -1.055, 12.563, 1.800, 27.853, -39.240, 31.36,,,,,,,,,,,,,,,,
 19:05:56.736,COM16, 2000-00-00 00:25:59.860, -0.039, 0.078, 0.922, -8.606, -7.080, 25.513, -2.933, -1.104, 12.761, 1.807, 27.787, -39.320, 31.36,,,,,,,,,,,,,,,,
 19:05:56.736,COM16, 2000-00-00 00:25:59.870, -0.039, -0.009, 1.025, -6.348, -6.531, 23.926, -2.983, -1.143, 12.942, 1.813, 27.720, -39.380, 31.36,,,,,,,,,,,,,,,,
 19:05:56.751,COM16, 2000-00-00 00:25:59.880, -0.025, -0.009, 1.025, -6.348, -6.531, 23.926, -3.032, -1.187, 13.118, 1.793, 27.653, -39.360, 31.36,,,,,,,,,,,,,,,,
 19:05:56.768,COM14, 2000-00-06 17:25:57.538, 0.023, -0.057, 0.981, 1.831, 1.221, 20.691, -1.033, -0.846, 44.171, -9.613, 26.073, -25.300, 31.47,,,,,,,,,,,,,,,,
 19:05:56.768,COM13, 2000-00-00 00:27:17.915, -0.050, 0.006, 0.997, -2.808, -2.563, 84.839, 3.219, 5.784, 151.694, -25.827, -56.693, -107.193, 31.27,,,,,,,,,,,,,,,,
 19:05:56.768,COM13, 2000-00-00 00:27:17.935, -0.042, 0.039, 0.926, -5.371, 0.000, 82.886, 3.246, 5.718, 153.364, -24.360, -56.040, -100.453, 31.30,,,,,,,,,,,,,,,,
 19:05:56.784,COM14, 2000-00-06 17:25:57.558, 0.075, -0.109, 0.955, 0.793, 0.427, 18.982, -1.071, -0.846, 44.550, -9.013, 25.100, -25.560, 31.49,,,,,,,,,,,,,,,,
 19:05:56.784,COM13, 2000-00-00 00:27:17.955, -0.064, 0.037, 1.002, -3.845, 2.258, 82.642, 3.285, 5.702, 155.017, -23.900, -54.707, -95.707, 31.28,,,,,,,,,,,,,,,,
 19:05:56.784,COM16, 2000-00-00 00:25:59.890, -0.025, -0.010, 1.034, 9.399, 6.775, 21.606, -2.922, -1.093, 13.266, 1.753, 27.620, -39.373, 31.30,,,,,,,,,,,,,,,,
 19:05:56.799,COM16, 2000-00-00 00:25:59.900, -0.066, -0.010, 1.034, 9.399, 6.775, 21.606, -2.818, -1.005, 13.409, 1.713, 27.633, -39.453, 31.30,,,,,,,,,,,,,,,,
 19:05:56.799,COM16, 2000-00-00 00:25:59.910, -0.066, 0.055, 0.998, 5.737, 4.028, 19.897, -2.747, -0.945, 13.535, 1.667, 27.667, -39.513, 31.33,,,,,,,,,,,,,,,,
 19:05:56.799,COM16, 2000-00-00 00:25:59.920, -0.023, 0.055, 0.998, 5.737, 4.028, 19.897, -2.670, -0.879, 13.656, 1.607, 27.667, -39.553, 31.33,,,,,,,,,,,,,,,,
 19:05:56.799,COM13, 2000-00-00 00:27:17.975, -0.031, 0.061, 1.023, -7.446, 0.610, 83.435, 3.279, 5.669, 156.687, -22.727, -52.767, -89.747, 31.29,,,,,,,,,,,,,,,,
 19:05:56.815,COM13, 2000-00-00 00:27:17.995, -0.051, 0.063, 0.964, -5.737, 0.793, 85.510, 3.285, 5.625, 158.390, -21.613, -50.687, -84.447, 31.29,,,,,,,,,,,,,,,,
 19:05:56.815,COM16, 2000-00-00 00:25:59.930, -0.023, -0.084, 0.983, -6.104, -5.188, 18.066, -2.714, -0.912, 13.760, 1.553, 27.647, -39.567, 31.33,,,,,,,,,,,,,,,,
 19:05:56.815,COM14, 2000-00-06 17:25:57.578, 0.045, -0.083, 1.057, 1.831, -0.488, 18.433, -1.082, -0.868, 44.918, -8.820, 24.280, -25.747, 31.50,,,,,,,,,,,,,,,,
 19:05:56.815,COM14, 2000-00-06 17:25:57.598, 0.021, -0.080, 0.911, 1.587, 0.488, 18.860, -1.104, -0.873, 45.297, -8.673, 23.033, -26.033, 31.52,,,,,,,,,,,,,,,,
 19:05:56.830,COM16, 2000-00-00 00:25:59.940, 0.093, -0.084, 0.983, -6.104, -5.188, 18.066, -2.763, -0.939, 13.865, 1.500, 27.627, -39.553, 31.33,,,,,,,,,,,,,,,,
 19:05:56.830,COM16, 2000-00-00 00:25:59.950, 0.093, -0.097, 1.014, -2.380, -1.770, 18.738, -2.774, -0.934, 13.980, 1.440, 27.607, -39.520, 31.33,,,,,,,,,,,,,,,,
 19:05:56.830,COM16, 2000-00-00 00:25:59.960, -0.034, -0.097, 1.014, -2.380, -1.770, 18.738, -2.791, -0.939, 14.101, 1.380, 27.580, -39.520, 31.33,,,,,,,,,,,,,,,,
 19:05:56.846,COM13, 2000-00-00 00:27:18.015, -0.085, -0.018, 0.979, -5.249, 4.700, 85.083, 3.312, 5.641, 160.098, -20.500, -48.407, -79.753, 31.29,,,,,,,,,,,,,,,,
 19:05:56.846,COM13, 2000-00-00 00:27:18.035, -0.023, 0.044, 0.992, -5.310, 3.601, 83.252, 3.329, 5.663, 161.779, -19.107, -46.287, -75.107, 31.30,,,,,,,,,,,,,,,,
 19:05:56.846,COM14, 2000-00-06 17:25:57.618, 0.085, -0.037, 1.015, 0.000, -0.732, 17.517, -1.148, -0.901, 45.643, -8.540, 22.253, -26.260, 31.49,,,,,,,,,,,,,,,,
 19:05:56.846,COM16, 2000-00-00 00:25:59.970, -0.034, -0.019, 0.994, 4.028, 2.014, 18.677, -2.741, -0.901, 14.211, 1.347, 27.553, -39.587, 31.35,,,,,,,,,,,,,,,,
 19:05:56.846,COM16, 2000-00-00 00:25:59.980, -0.113, -0.019, 0.994, 4.028, 2.014, 18.677, -2.697, -0.862, 14.326, 1.320, 27.533, -39.633, 31.35,,,,,,,,,,,,,,,,
 19:05:56.846,COM16, 2000-00-00 00:25:59.990, -0.113, 0.138, 0.969, -3.418, -1.648, 15.503, -2.719, -0.862, 14.403, 1.280, 27.553, -39.593, 31.37,,,,,,,,,,,,,,,,
 19:05:56.861,COM14, 2000-00-06 17:25:57.638, 0.022, -0.094, 0.994, 0.061, -0.061, 14.404, -1.192, -0.917, 45.934, -8.453, 21.613, -26.540, 31.49,,,,,,,,,,,,,,,,
 19:05:56.876,COM16, 2000-00-00 00:26:00.000, 0.086, 0.138, 0.969, -3.418, -1.648, 15.503, -2.736, -0.857, 14.480, 1.873, 27.560, -39.473, 31.37,,,,,,,,,,,,,,,,
 19:05:56.876,COM13, 2000-00-00 00:27:18.055, -0.128, 0.089, 1.046, -6.287, 1.770, 85.632, 3.340, 5.652, 163.482, -18.180, -43.733, -71.253, 31.28,,,,,,,,,,,,,,,,
 19:05:56.892,COM16, 2000-00-00 00:26:00.010, 0.086, -0.208, 1.030, -5.615, -2.747, 13.794, -2.774, -0.868, 14.546, 2.340, 27.520, -39.413, 31.35,,,,,,,,,,,,,,,,
 19:05:56.892,COM16, 2000-00-00 00:26:00.020, -0.062, -0.208, 1.030, -5.615, -2.747, 13.794, -2.823, -0.879, 14.628, 2.693, 27.473, -39.420, 31.35,,,,,,,,,,,,,,,,
 19:05:56.892,COM16, 2000-00-00 00:26:00.030, -0.062, 0.036, 1.003, 6.592, 1.953, 13.855, -2.752, -0.846, 14.711, 2.980, 27.440, -39.400, 31.31,,,,,,,,,,,,,,,,
 19:05:56.892,COM14, 2000-00-06 17:25:57.658, 0.121, -0.136, 1.109, 0.977, -0.061, 14.282, -1.219, -0.934, 46.214, -8.333, 20.740, -26.800, 31.51,,,,,,,,,,,,,,,,
 19:05:56.892,COM14, 2000-00-06 17:25:57.678, 0.002, -0.042, 0.895, 2.258, 0.854, 12.390, -1.219, -0.934, 46.461, -8.273, 20.240, -27.160, 31.49,,,,,,,,,,,,,,,,
 19:05:56.907,COM16, 2000-00-00 00:26:00.040, 0.021, 0.036, 1.003, 6.592, 1.953, 13.855, -2.675, -0.807, 14.788, 3.207, 27.433, -39.347, 31.31,,,,,,,,,,,,,,,,
 19:05:56.907,COM13, 2000-00-00 00:27:18.075, 0.020, -0.012, 1.023, -6.287, -1.465, 84.839, 3.345, 5.581, 165.185, -16.713, -40.987, -67.060, 31.28,,,,,,,,,,,,,,,,
 19:05:56.907,COM13, 2000-00-00 00:27:18.095, -0.071, 0.103, 0.955, -4.700, 0.061, 86.853, 3.373, 5.521, 166.915, -16.373, -38.580, -64.220, 31.26,,,,,,,,,,,,,,,,
 19:05:56.923,COM14, 2000-00-06 17:25:57.698, 0.066, -0.142, 1.052, 2.014, 0.549, 11.169, -1.230, -0.945, 46.686, -8.107, 19.860, -27.740, 31.49,,,,,,,,,,,,,,,,
 19:05:56.939,COM13, 2000-00-00 00:27:18.115, -0.076, -0.001, 0.967, -8.484, 2.380, 85.571, 3.351, 5.499, 168.635, -15.300, -36.020, -60.640, 31.31,,,,,,,,,,,,,,,,
 19:05:56.954,COM13, 2000-00-00 00:27:18.135, -0.021, 0.041, 0.985, -6.409, 3.052, 84.717, 3.340, 5.504, 170.338, -14.960, -33.200, -58.033, 31.29,,,,,,,,,,,,,,,,
 19:05:56.970,COM14, 2000-00-06 17:25:57.718, 0.089, 0.022, 0.916, 0.854, 0.244, 10.803, -1.252, -0.956, 46.901, -8.027, 18.967, -28.220, 31.49,,,,,,,,,,,,,,,,
 19:05:56.970,COM16, 2000-00-00 00:26:00.050, 0.021, -0.050, 0.985, -0.916, 1.160, 11.353, -2.675, -0.786, 14.848, 3.347, 27.427, -39.220, 31.36,,,,,,,,,,,,,,,,
 19:05:56.986,COM16, 2000-00-00 00:26:00.060, -0.007, -0.050, 0.985, -0.916, 1.160, 11.353, -2.675, -0.758, 14.908, 3.460, 27.407, -39.107, 31.36,,,,,,,,,,,,,,,,
 19:05:56.986,COM16, 2000-00-00 00:26:00.070, -0.007, -0.067, 0.989, 2.136, -1.343, 11.414, -2.648, -0.758, 14.974, 3.547, 27.393, -39.113, 31.31,,,,,,,,,,,,,,,,
 19:05:56.986,COM16, 2000-00-00 00:26:00.080, -0.013, -0.067, 0.989, 2.136, -1.343, 11.414, -2.620, -0.758, 15.040, 3.633, 27.340, -39.127, 31.31,,,,,,,,,,,,,,,,
 19:05:56.986,COM14, 2000-00-06 17:25:57.738, 0.034, -0.088, 1.104, -0.732, 0.854, 8.545, -1.307, -0.961, 47.071, -8.513, 18.433, -28.653, 31.52,,,,,,,,,,,,,,,,
 19:05:56.986,COM14, 2000-00-06 17:25:57.758, 0.118, 0.025, 0.934, 2.136, -1.404, 8.789, -1.291, -1.011, 47.247, -8.213, 18.007, -28.960, 31.49,,,,,,,,,,,,,,,,
 19:05:56.987,COM13, 2000-00-00 00:27:18.155, -0.090, -0.005, 1.084, -5.676, 0.732, 86.121, 3.345, 5.471, 172.057, -13.960, -30.527, -54.933, 31.29,,,,,,,,,,,,,,,,
 19:05:56.987,COM13, 2000-00-00 00:27:18.175, 0.012, 0.054, 0.931, -3.418, -0.305, 84.595, 3.389, 5.416, 173.760, -13.580, -28.107, -53.313, 31.33,,,,,,,,,,,,,,,,
 19:05:57.001,COM16, 2000-00-00 00:26:00.090, -0.013, 0.094, 1.040, -1.770, 0.244, 9.338, -2.631, -0.747, 15.090, 3.713, 27.273, -39.047, 31.30,,,,,,,,,,,,,,,,
 19:05:57.001,COM16, 2000-00-00 00:26:00.100, 0.088, 0.094, 1.040, -1.770, 0.244, 9.338, -2.637, -0.731, 15.134, 3.767, 27.220, -38.987, 31.30,,,,,,,,,,,,,,,,
 19:05:57.016,COM14, 2000-00-06 17:25:57.778, -0.009, -0.045, 1.051, 1.282, 1.587, 6.775, -1.291, -1.011, 47.379, -9.113, 17.780, -29.440, 31.50,,,,,,,,,,,,,,,,
 19:05:57.016,COM14, 2000-00-06 17:25:57.798, 0.122, -0.103, 0.937, 1.038, 0.061, 6.592, -1.302, -1.033, 47.510, -8.947, 17.727, -29.833, 31.48,,,,,,,,,,,,,,,,
 19:05:57.016,COM13, 2000-00-00 00:27:18.195, -0.108, 0.048, 1.014, -5.859, 1.648, 85.999, 3.406, 5.383, 175.474, -12.467, -25.100, -50.507, 31.28,,,,,,,,,,,,,,,,
 19:05:57.017,COM16, 2000-00-00 00:26:00.110, 0.088, -0.113, 0.931, 3.235, 0.916, 8.728, -2.593, -0.714, 15.172, 3.793, 27.180, -39.040, 31.35,,,,,,,,,,,,,,,,
 19:05:57.017,COM16, 2000-00-00 00:26:00.120, -0.050, -0.113, 0.931, 3.235, 0.916, 8.728, -2.549, -0.698, 15.222, 3.833, 27.133, -39.067, 31.35,,,,,,,,,,,,,,,,
 19:05:57.017,COM16, 2000-00-00 00:26:00.130, -0.050, 0.166, 1.063, -4.883, -2.808, 7.813, -2.587, -0.720, 15.260, 3.887, 27.067, -39.020, 31.29,,,,,,,,,,,,,,,,
 19:05:57.017,COM16, 2000-00-00 00:26:00.140, 0.095, 0.166, 1.063, -4.883, -2.808, 7.813, -2.620, -0.742, 15.298, 3.893, 27.013, -39.033, 31.29,,,,,,,,,,,,,,,,
 19:05:57.047,COM16, 2000-00-00 00:26:00.150, 0.095, -0.190, 0.982, 7.507, 3.540, 6.836, -2.527, -0.698, 15.326, 3.867, 26.980, -39.093, 31.33,,,,,,,,,,,,,,,,
 19:05:57.047,COM16, 2000-00-00 00:26:00.160, -0.089, -0.190, 0.982, 7.507, 3.540, 6.836, -2.444, -0.665, 15.353, 3.880, 26.940, -39.100, 31.33,,,,,,,,,,,,,,,,
 19:05:57.047,COM16, 2000-00-00 00:26:00.170, -0.089, 0.153, 0.993, -0.061, -0.244, 5.676, -2.439, -0.665, 15.375, 3.907, 26.920, -39.020, 31.34,,,,,,,,,,,,,,,,
 19:05:57.047,COM14, 2000-00-06 17:25:57.818, 0.066, 0.066, 1.023, 0.977, -0.244, 5.005, -1.296, -1.060, 47.609, -8.980, 17.667, -30.167, 31.50,,,,,,,,,,,,,,,,
 19:05:57.063,COM16, 2000-00-00 00:26:00.180, 0.141, 0.153, 0.993, -0.061, -0.244, 5.676, -2.422, -0.659, 15.386, 3.880, 26.900, -38.947, 31.34,,,,,,,,,,,,,,,,
 19:05:57.063,COM16, 2000-00-00 00:26:00.190, 0.141, -0.138, 1.036, -8.057, -5.188, 4.639, -2.488, -0.709, 15.397, 3.860, 27.180, -38.900, 31.30,,,,,,,,,,,,,,,,
 19:05:57.063,COM16, 2000-00-00 00:26:00.200, -0.041, -0.138, 1.036, -8.057, -5.188, 4.639, -2.554, -0.758, 15.414, 3.860, 27.693, -38.847, 31.30,,,,,,,,,,,,,,,,
 19:05:57.063,COM14, 2000-00-06 17:25:57.838, 0.053, -0.199, 0.981, -0.244, 1.099, 4.822, -1.329, -1.071, 47.703, -9.107, 17.633, -30.467, 31.50,,,,,,,,,,,,,,,,
 19:05:57.063,COM13, 2000-00-00 00:27:18.215, -0.009, 0.001, 0.974, -5.005, 1.770, 84.351, 3.422, 5.356, 177.171, -12.113, -22.720, -48.707, 31.33,,,,,,,,,,,,,,,,
 19:05:57.063,COM13, 2000-00-00 00:27:18.235, -0.063, 0.113, 0.977, -7.263, 2.441, 85.693, 3.406, 5.345, 178.879, -10.747, -19.767, -46.687, 31.24,,,,,,,,,,,,,,,,
 19:05:57.064,COM13, 2000-00-00 00:27:18.255, -0.065, 0.005, 1.030, -6.958, 2.014, 87.158, 3.395, 5.328, -179.374, -10.380, -17.407, -45.540, 31.25,,,,,,,,,,,,,,,,
 19:05:57.093,COM14, 2000-00-06 17:25:57.858, 0.107, 0.026, 0.990, 1.099, -0.854, 3.723, -1.335, -1.115, 47.780, -9.620, 17.627, -30.833, 31.49,,,,,,,,,,,,,,,,
 19:05:57.093,COM14, 2000-00-06 17:25:57.878, 0.010, 0.066, 1.004, -0.244, 1.099, 3.113, -1.346, -1.126, 47.840, -9.907, 17.547, -31.187, 31.49,,,,,,,,,,,,,,,,
 19:05:57.093,COM16, 2000-00-00 00:26:00.210, -0.041, -0.069, 0.970, 10.254, 6.287, 4.639, -2.444, -0.698, 15.419, 3.833, 28.113, -38.793, 31.32,,,,,,,,,,,,,,,,
 19:05:57.094,COM13, 2000-00-00 00:27:18.275, -0.012, 0.013, 0.973, -7.202, 1.892, 84.473, 3.373, 5.312, -177.665, -9.720, -14.500, -44.533, 31.28,,,,,,,,,,,,,,,,
 19:05:57.110,COM16, 2000-00-00 00:26:00.220, 0.036, -0.069, 0.970, 10.254, 6.287, 4.639, -2.340, -0.637, 15.425, 3.800, 28.453, -38.747, 31.32,,,,,,,,,,,,,,,,
 19:05:57.110,COM16, 2000-00-00 00:26:00.230, 0.036, 0.121, 0.970, -3.479, -1.160, 3.052, -2.362, -0.648, 15.414, 3.780, 28.707, -38.673, 31.30,,,,,,,,,,,,,,,,
 19:05:57.110,COM16, 2000-00-00 00:26:00.240, 0.084, 0.121, 0.970, -3.479, -1.160, 3.052, -2.384, -0.659, 15.403, 3.787, 28.913, -38.607, 31.30,,,,,,,,,,,,,,,,
 19:05:57.125,COM16, 2000-00-00 00:26:00.250, 0.084, -0.032, 1.039, -4.883, -5.676, 2.991, -2.417, -0.720, 15.397, 3.807, 29.067, -38.580, 31.33,,,,,,,,,,,,,,,,
 19:05:57.125,COM14, 2000-00-06 17:25:57.898, 0.123, -0.094, 0.988, 1.221, -0.732, 2.502, -1.335, -1.170, 47.889, -10.067, 17.613, -31.540, 31.48,,,,,,,,,,,,,,,,
 19:05:57.156,COM13, 2000-00-00 00:27:18.295, -0.110, 0.050, 1.009, -5.615, 2.197, 85.876, 3.373, 5.295, -175.952, -9.747, -11.980, -43.607, 31.29,,,,,,,,,,,,,,,,
 19:05:57.156,COM13, 2000-00-00 00:27:18.315, 0.005, -0.007, 1.016, -5.493, 1.587, 84.473, 3.378, 5.273, -174.254, -8.900, -9.893, -42.587, 31.29,,,,,,,,,,,,,,,,
 19:05:57.156,COM16, 2000-00-00 00:26:00.260, -0.010, -0.032, 1.039, -4.883, -5.676, 2.991, -2.455, -0.780, 15.397, 3.827, 29.173, -38.587, 31.33,,,,,,,,,,,,,,,,
 19:05:57.156,COM16, 2000-00-00 00:26:00.270, -0.010, 0.036, 0.990, 3.296, 3.540, 1.709, -2.406, -0.747, 15.375, 3.867, 29.247, -38.560, 31.35,,,,,,,,,,,,,,,,
 19:05:57.156,COM14, 2000-00-06 17:25:57.918, 0.057, 0.098, 1.063, -0.183, 1.221, 1.099, -1.340, -1.176, 47.911, -10.173, 17.653, -31.893, 31.49,,,,,,,,,,,,,,,,
 19:05:57.156,COM14, 2000-00-06 17:25:57.938, 0.086, -0.061, 1.017, 2.075, 0.366, 0.549, -1.296, -1.203, 47.922, -10.220, 17.653, -32.040, 31.50,,,,,,,,,,,,,,,,
 19:05:57.171,COM13, 2000-00-00 00:27:18.335, -0.086, 0.061, 0.987, -5.127, -1.343, 84.534, 3.389, 5.208, -172.562, -8.480, -7.793, -41.967, 31.29,,,,,,,,,,,,,,,,
 19:05:57.171,COM13, 2000-00-00 00:27:18.355, 0.018, 0.045, 0.984, -5.981, 1.648, 85.632, 3.389, 5.169, -170.854, -8.060, -4.973, -41.640, 31.30,,,,,,,,,,,,,,,,
 19:05:57.171,COM16, 2000-00-00 00:26:00.280, 0.069, 0.036, 0.990, 3.296, 3.540, 1.709, -2.357, -0.720, 15.353, 3.913, 29.340, -38.533, 31.35,,,,,,,,,,,,,,,,
 19:05:57.171,COM16, 2000-00-00 00:26:00.290, 0.069, 0.075, 1.005, 5.615, 4.639, 0.854, -2.285, -0.676, 15.326, 3.933, 29.420, -38.567, 31.31,,,,,,,,,,,,,,,,
 19:05:57.171,COM16, 2000-00-00 00:26:00.300, 0.049, 0.075, 1.005, 5.615, 4.639, 0.854, -2.208, -0.637, 15.298, 3.927, 29.440, -38.587, 31.31,,,,,,,,,,,,,,,,
 19:05:57.186,COM14, 2000-00-06 17:25:57.958, 0.033, -0.045, 0.882, 0.488, -0.061, 0.366, -1.291, -1.236, 47.928, -10.160, 17.600, -32.367, 31.49,,,,,,,,,,,,,,,,
 19:05:57.186,COM14, 2000-00-06 17:25:57.978, 0.090, 0.015, 0.997, 0.000, 0.916, -0.549, -1.291, -1.252, 47.917, -10.153, 17.067, -32.453, 31.49,,,,,,,,,,,,,,,,
 19:05:57.202,COM13, 2000-00-00 00:27:18.375, -0.105, 0.048, 0.958, -6.775, 2.625, 85.571, 3.373, 5.158, -169.140, -7.767, -2.640, -40.960, 31.28,,,,,,,,,,,,,,,,
 19:05:57.218,COM14, 2000-00-06 17:25:57.998, 0.083, 0.039, 0.975, -1.221, 0.366, -0.488, -1.307, -1.280, 47.906, -10.147, 17.253, -32.540, 31.49,,,,,,,,,,,,,,,,
 19:05:57.218,COM16, 2000-00-00 00:26:00.310, 0.049, -0.096, 0.995, -2.686, -4.822, 0.793, -2.214, -0.692, 15.276, 3.947, 29.453, -38.520, 31.33,,,,,,,,,,,,,,,,
 19:05:57.218,COM16, 2000-00-00 00:26:00.320, 0.013, -0.096, 0.995, -2.686, -4.822, 0.793, -2.230, -0.753, 15.255, 3.987, 29.473, -38.473, 31.33,,,,,,,,,,,,,,,,
 19:05:57.218,COM16, 2000-00-00 00:26:00.330, 0.013, 0.023, 1.016, -1.526, -1.709, -0.244, -2.230, -0.775, 15.222, 4.007, 29.460, -38.507, 31.33,,,,,,,,,,,,,,,,
 19:05:57.233,COM16, 2000-00-00 00:26:00.340, 0.101, 0.023, 1.016, -1.526, -1.709, -0.244, -2.230, -0.797, 15.189, 4.007, 29.420, -38.520, 31.33,,,,,,,,,,,,,,,,
 19:05:57.233,COM16, 2000-00-00 00:26:00.350, 0.101, 0.008, 0.990, 5.371, 7.080, -0.122, -2.164, -0.736, 15.156, 3.993, 29.407, -38.480, 31.32,,,,,,,,,,,,,,,,
 19:05:57.233,COM16, 2000-00-00 00:26:00.360, -0.013, 0.008, 0.990, 5.371, 7.080, -0.122, -2.093, -0.676, 15.128, 3.993, 29.400, -38.393, 31.32,,,,,,,,,,,,,,,,
 19:05:57.233,COM13, 2000-00-00 00:27:18.395, -0.037, 0.005, 1.030, -6.042, 4.700, 84.412, 3.367, 5.180, -167.443, -7.547, -0.567, -40.927, 31.27,,,,,,,,,,,,,,,,
 19:05:57.233,COM13, 2000-00-00 00:27:18.415, -0.046, 0.040, 1.020, -6.165, -0.061, 85.327, 3.356, 5.153, -165.734, -7.187, 1.687, -40.287, 31.27,,,,,,,,,,,,,,,,
 19:05:57.249,COM14, 2000-00-06 17:25:58.018, 0.083, -0.034, 1.140, 0.671, 1.404, -2.075, -1.285, -1.285, 47.862, -10.093, 17.380, -32.780, 31.49,,,,,,,,,,,,,,,,
 19:05:57.249,COM16, 2000-00-00 00:26:00.370, -0.013, 0.073, 1.017, 0.366, 0.427, -1.465, -2.071, -0.687, 15.084, 4.013, 29.367, -38.287, 31.33,,,,,,,,,,,,,,,,
 19:05:57.249,COM16, 2000-00-00 00:26:00.380, 0.104, 0.073, 1.017, 0.366, 0.427, -1.465, -2.049, -0.692, 15.040, 4.020, 29.280, -38.107, 31.33,,,,,,,,,,,,,,,,
 19:05:57.264,COM16, 2000-00-00 00:26:00.390, 0.104, -0.018, 0.989, -5.920, -4.761, -1.953, -2.093, -0.747, 14.996, 4.040, 29.180, -37.920, 31.33,,,,,,,,,,,,,,,,
 19:05:57.264,COM16, 2000-00-00 00:26:00.400, 0.046, -0.018, 0.989, -5.920, -4.761, -1.953, -2.131, -0.807, 14.952, 4.067, 29.087, -37.820, 31.33,,,,,,,,,,,,,,,,
 19:05:57.264,COM16, 2000-00-00 00:26:00.410, 0.046, 0.007, 1.016, 4.822, 3.357, -1.770, -2.065, -0.786, 14.914, 4.087, 29.027, -37.720, 31.34,,,,,,,,,,,,,,,,
 19:05:57.265,COM14, 2000-00-06 17:25:58.038, 0.016, 0.043, 0.911, 0.793, 0.427, -1.709, -1.258, -1.313, 47.829, -10.033, 17.373, -33.013, 31.47,,,,,,,,,,,,,,,,
 19:05:57.265,COM13, 2000-00-00 00:27:18.435, -0.026, 0.037, 0.978, -5.005, 0.305, 85.815, 3.362, 5.098, -164.020, -7.260, 3.067, -40.833, 31.27,,,,,,,,,,,,,,,,
 19:05:57.265,COM13, 2000-00-00 00:27:18.455, -0.070, 0.025, 0.969, -6.775, 2.686, 84.595, 3.351, 5.087, -162.323, -7.133, 5.227, -40.473, 31.29,,,,,,,,,,,,,,,,
 19:05:57.280,COM14, 2000-00-06 17:25:58.058, 0.083, -0.005, 0.983, 0.183, 0.427, -2.625, -1.241, -1.335, 47.774, -9.960, 17.333, -33.247, 31.48,,,,,,,,,,,,,,,,
 19:05:57.296,COM14, 2000-00-06 17:25:58.078, 0.103, 0.089, 1.065, -0.793, 0.549, -3.235, -1.236, -1.351, 47.714, -9.873, 17.313, -33.387, 31.51,,,,,,,,,,,,,,,,
 19:05:57.296,COM13, 2000-00-00 00:27:18.475, -0.031, 0.011, 1.037, -4.211, 3.052, 84.412, 3.362, 5.087, -160.631, -6.907, 6.687, -40.847, 31.26,,,,,,,,,,,,,,,,
 19:05:57.311,COM16, 2000-00-00 00:26:00.420, -0.005, 0.007, 1.016, 4.822, 3.357, -1.770, -2.000, -0.769, 14.870, 4.107, 28.987, -37.593, 31.34,,,,,,,,,,,,,,,,
 19:05:57.311,COM16, 2000-00-00 00:26:00.430, -0.005, 0.107, 1.023, 3.113, 3.601, -3.113, -1.950, -0.742, 14.815, 4.133, 28.973, -37.547, 31.30,,,,,,,,,,,,,,,,
 19:05:57.311,COM16, 2000-00-00 00:26:00.440, 0.142, 0.107, 1.023, 3.113, 3.601, -3.113, -1.895, -0.720, 14.755, 4.147, 28.953, -37.500, 31.30,,,,,,,,,,,,,,,,
 19:05:57.311,COM16, 2000-00-00 00:26:00.450, 0.142, 0.015, 0.976, -4.028, -4.883, -3.296, -1.912, -0.780, 14.705, 4.127, 28.893, -37.420, 31.31,,,,,,,,,,,,,,,,
 19:05:57.327,COM16, 2000-00-00 00:26:00.460, 0.028, 0.015, 0.976, -4.028, -4.883, -3.296, -1.934, -0.846, 14.656, 4.127, 28.807, -37.380, 31.31,,,,,,,,,,,,,,,,
 19:05:57.327,COM14, 2000-00-06 17:25:58.098, 0.037, -0.050, 1.007, 1.892, 0.000, -3.418, -1.176, -1.390, 47.642, -9.787, 17.327, -33.453, 31.50,,,,,,,,,,,,,,,,
 19:05:57.327,COM13, 2000-00-00 00:27:18.495, -0.043, 0.087, 1.005, -7.202, -1.526, 83.801, 3.340, 5.026, -158.950, -6.220, 8.247, -40.767, 31.29,,,,,,,,,,,,,,,,
 19:05:57.327,COM13, 2000-00-00 00:27:18.515, -0.030, -0.010, 0.959, -5.066, 0.977, 85.388, 3.340, 4.977, -157.247, -6.600, 9.747, -41.133, 31.30,,,,,,,,,,,,,,,,
 19:05:57.358,COM13, 2000-00-00 00:27:18.535, -0.036, 0.040, 0.979, -6.714, 3.174, 82.764, 3.318, 4.971, -155.577, -6.020, 11.520, -40.833, 31.28,,,,,,,,,,,,,,,,
 19:05:57.359,COM14, 2000-00-06 17:25:58.118, 0.024, 0.074, 0.999, 0.549, 0.671, -3.845, -1.143, -1.406, 47.565, -9.673, 17.340, -33.473, 31.49,,,,,,,,,,,,,,,,
 19:05:57.360,COM14, 2000-00-06 17:25:58.138, 0.111, 0.029, 0.915, -0.427, -0.305, -4.578, -1.126, -1.439, 47.477, -9.580, 17.327, -33.653, 31.49,,,,,,,,,,,,,,,,
 19:05:57.373,COM13, 2000-00-00 00:27:18.555, -0.088, 0.049, 1.031, -4.639, 2.441, 85.022, 3.323, 4.966, -153.885, -6.253, 12.740, -41.273, 31.30,,,,,,,,,,,,,,,,
 19:05:57.373,COM16, 2000-00-00 00:26:00.470, 0.028, -0.039, 1.026, 0.061, -1.221, -3.479, -1.912, -0.873, 14.601, 4.160, 28.733, -37.400, 31.33,,,,,,,,,,,,,,,,
 19:05:57.373,COM16, 2000-00-00 00:26:00.480, 0.007, -0.039, 1.026, 0.061, -1.221, -3.479, -1.890, -0.901, 14.551, 4.187, 28.680, -37.447, 31.33,,,,,,,,,,,,,,,,
 19:05:57.373,COM16, 2000-00-00 00:26:00.490, 0.007, 0.147, 0.980, 4.272, 4.333, -3.906, -1.829, -0.868, 14.491, 4.227, 28.640, -37.433, 31.32,,,,,,,,,,,,,,,,
 19:05:57.373,COM16, 2000-00-00 00:26:00.500, 0.106, 0.147, 0.980, 4.272, 4.333, -3.906, -1.758, -0.840, 14.425, 3.653, 28.607, -37.387, 31.32,,,,,,,,,,,,,,,,
 19:05:57.389,COM16, 2000-00-00 00:26:00.510, 0.106, -0.031, 1.033, -1.160, -1.770, -5.066, -1.747, -0.873, 14.348, 3.187, 28.900, -37.320, 31.34,,,,,,,,,,,,,,,,
 19:05:57.389,COM14, 2000-00-06 17:25:58.158, 0.041, 0.008, 1.062, -0.061, 0.000, -4.333, -1.099, -1.467, 47.390, -10.093, 17.273, -33.720, 31.49,,,,,,,,,,,,,,,,
 19:05:57.389,COM14, 2000-00-06 17:25:58.178, 0.011, 0.082, 1.007, 0.061, 1.221, -5.066, -1.066, -1.472, 47.285, -10.693, 17.227, -33.727, 31.51,,,,,,,,,,,,,,,,
 19:05:57.404,COM16, 2000-00-00 00:26:00.520, 0.036, -0.031, 1.033, -1.160, -1.770, -5.066, -1.736, -0.906, 14.271, 3.420, 29.407, -37.293, 31.34,,,,,,,,,,,,,,,,
 19:05:57.404,COM16, 2000-00-00 00:26:00.530, 0.036, 0.041, 1.021, 0.366, 0.793, -3.967, -1.708, -0.912, 14.205, 3.600, 29.820, -37.253, 31.34,,,,,,,,,,,,,,,,
 19:05:57.404,COM13, 2000-00-00 00:27:18.575, 0.000, 0.008, 1.004, -8.179, 0.061, 82.642, 3.263, 4.916, -152.232, -5.480, 14.453, -41.240, 31.30,,,,,,,,,,,,,,,,
 19:05:57.420,COM16, 2000-00-00 00:26:00.540, 0.010, 0.041, 1.021, 0.366, 0.793, -3.967, -1.686, -0.923, 14.139, 3.147, 30.133, -37.187, 31.34,,,,,,,,,,,,,,,,
 19:05:57.420,COM16, 2000-00-00 00:26:00.550, 0.010, 0.145, 0.973, 1.282, 0.977, -5.798, -1.648, -0.928, 14.046, 2.793, 30.400, -37.047, 31.34,,,,,,,,,,,,,,,,
 19:05:57.420,COM16, 2000-00-00 00:26:00.560, 0.082, 0.145, 0.973, 1.282, 0.977, -5.798, -1.604, -0.928, 13.947, 2.473, 30.640, -36.793, 31.34,,,,,,,,,,,,,,,,
 19:05:57.420,COM14, 2000-00-06 17:25:58.198, 0.047, 0.081, 1.033, 1.099, -0.366, -5.920, -1.005, -1.505, 47.170, -11.367, 17.213, -33.753, 31.49,,,,,,,,,,,,,,,,
 19:05:57.435,COM16, 2000-00-00 00:26:00.570, 0.082, 0.038, 1.019, 1.709, -0.916, -5.676, -1.560, -0.956, 13.854, 2.513, 30.813, -36.600, 31.32,,,,,,,,,,,,,,,,
 19:05:57.435,COM13, 2000-00-00 00:27:18.595, -0.080, -0.003, 0.997, -2.502, 0.427, 83.435, 3.312, 4.872, -150.562, -5.433, 16.120, -41.713, 31.27,,,,,,,,,,,,,,,,
 19:05:57.435,COM13, 2000-00-00 00:27:18.615, 0.005, 0.091, 0.999, -5.066, -0.488, 82.825, 3.312, 4.812, -148.903, -5.027, 17.353, -41.893, 31.27,,,,,,,,,,,,,,,,
 19:05:57.436,COM14, 2000-00-06 17:25:58.218, 0.065, -0.061, 0.987, 0.732, 0.793, -6.836, -0.961, -1.511, 47.049, -11.780, 17.187, -33.840, 31.46,,,,,,,,,,,,,,,,
 19:05:57.465,COM14, 2000-00-06 17:25:58.238, 0.123, 0.121, 0.967, 0.122, -0.305, -6.653, -0.923, -1.527, 46.912, -12.000, 17.127, -33.960, 31.52,,,,,,,,,,,,,,,,
 19:05:57.465,COM14, 2000-00-06 17:25:58.258, 0.034, -0.083, 1.028, -1.038, -0.244, -6.897, -0.890, -1.560, 46.780, -12.093, 17.007, -33.953, 31.47,,,,,,,,,,,,,,,,
 19:05:57.481,COM13, 2000-00-00 00:27:18.635, -0.048, 0.046, 0.971, -4.944, 0.549, 86.426, 3.323, 4.768, -147.173, -4.740, 18.933, -42.360, 31.30,,,,,,,,,,,,,,,,
 19:05:57.481,COM13, 2000-00-00 00:27:18.655, -0.041, 0.020, 0.982, -6.409, 2.075, 84.717, 3.296, 4.752, -145.475, -5.287, 20.027, -43.027, 31.26,,,,,,,,,,,,,,,,
 19:05:57.496,COM13, 2000-00-00 00:27:18.675, -0.065, 0.095, 0.975, -7.751, 3.723, 86.365, 3.252, 4.774, -143.745, -4.827, 21.127, -43.233, 31.29,,,,,,,,,,,,,,,,
 19:05:57.496,COM14, 2000-00-06 17:25:58.278, 0.053, 0.105, 0.928, 0.000, -0.183, -7.935, -0.884, -1.599, 46.637, -12.140, 17.007, -33.980, 31.50,,,,,,,,,,,,,,,,
 19:05:57.513,COM13, 2000-00-00 00:27:18.695, -0.010, 0.000, 1.069, -5.798, 1.648, 87.891, 3.246, 4.752, -141.987, -5.727, 21.973, -44.267, 31.30,,,,,,,,,,,,,,,,
 19:05:57.528,COM16, 2000-00-00 00:26:00.580, 0.063, 0.038, 1.019, 1.709, -0.916, -5.676, -1.516, -0.978, 13.755, 2.267, 30.940, -36.533, 31.32,,,,,,,,,,,,,,,,
 19:05:57.528,COM16, 2000-00-00 00:26:00.590, 0.063, -0.102, 0.968, 3.967, 3.540, -6.165, -1.450, -0.956, 13.656, 2.093, 30.987, -36.560, 31.34,,,,,,,,,,,,,,,,
 19:05:57.528,COM16, 2000-00-00 00:26:00.600, 0.064, -0.102, 0.968, 3.967, 3.540, -6.165, -1.390, -0.939, 13.552, 1.960, 30.980, -36.567, 31.34,,,,,,,,,,,,,,,,
 19:05:57.528,COM16, 2000-00-00 00:26:00.610, 0.064, 0.085, 1.029, -2.502, -3.723, -6.897, -1.395, -0.994, 13.447, 1.873, 30.987, -36.540, 31.30,,,,,,,,,,,,,,,,
 19:05:57.528,COM14, 2000-00-06 17:25:58.298, 0.045, 0.029, 1.137, 0.305, 0.854, -8.240, -0.846, -1.626, 46.472, -12.120, 16.933, -34.040, 31.51,,,,,,,,,,,,,,,,
 19:05:57.543,COM16, 2000-00-00 00:26:00.620, 0.080, 0.085, 1.029, -2.502, -3.723, -6.897, -1.401, -1.049, 13.337, 1.807, 31.007, -36.367, 31.30,,,,,,,,,,,,,,,,
 19:05:57.543,COM16, 2000-00-00 00:26:00.630, 0.080, -0.002, 1.031, -3.113, -0.488, -6.653, -1.412, -1.071, 13.233, 1.760, 30.960, -36.193, 31.34,,,,,,,,,,,,,,,,
 19:05:57.543,COM16, 2000-00-00 00:26:00.640, 0.060, -0.002, 1.031, -3.113, -0.488, -6.653, -1.423, -1.093, 13.129, 1.733, 30.887, -36.127, 31.34,,,,,,,,,,,,,,,,
 19:05:57.544,COM13, 2000-00-00 00:27:18.715, -0.070, 0.059, 0.948, -7.568, 0.061, 86.670, 3.208, 4.697, -140.251, -5.900, 23.047, -44.773, 31.27,,,,,,,,,,,,,,,,
 19:05:57.544,COM13, 2000-00-00 00:27:18.735, -0.055, -0.003, 1.008, -5.188, 2.136, 87.158, 3.208, 4.691, -138.510, -6.340, 24.087, -45.227, 31.25,,,,,,,,,,,,,,,,
 19:05:57.544,COM14, 2000-00-06 17:25:58.318, 0.086, 0.117, 0.970, -0.244, -0.427, -8.240, -0.807, -1.642, 46.313, -12.087, 16.867, -34.067, 31.52,,,,,,,,,,,,,,,,
 19:05:57.558,COM16, 2000-00-00 00:26:00.650, 0.060, 0.012, 0.994, 7.874, 5.737, -7.141, -1.324, -1.049, 13.019, 1.727, 30.827, -36.053, 31.35,,,,,,,,,,,,,,,,
 19:05:57.559,COM16, 2000-00-00 00:26:00.660, 0.001, 0.012, 0.994, 7.874, 5.737, -7.141, -1.225, -1.011, 12.909, 1.733, 30.753, -35.993, 31.35,,,,,,,,,,,,,,,,
 19:05:57.559,COM16, 2000-00-00 00:26:00.670, 0.001, 0.120, 0.926, -7.996, -6.042, -8.545, -1.285, -1.088, 12.788, 1.760, 30.680, -35.967, 31.30,,,,,,,,,,,,,,,,
 19:05:57.574,COM13, 2000-00-00 00:27:18.755, -0.002, 0.070, 1.013, -7.446, -0.427, 86.731, 3.164, 4.631, -136.774, -5.927, 25.047, -45.813, 31.29,,,,,,,,,,,,,,,,
 19:05:57.574,COM14, 2000-00-06 17:25:58.338, 0.016, -0.004, 0.963, 0.488, 0.916, -9.216, -0.769, -1.670, 46.143, -12.027, 16.787, -34.140, 31.50,,,,,,,,,,,,,,,,
 19:05:57.574,COM14, 2000-00-06 17:25:58.358, -0.008, 0.078, 1.003, 0.488, 0.610, -9.888, -0.720, -1.681, 45.956, -11.933, 17.027, -34.153, 31.51,,,,,,,,,,,,,,,,
 19:05:57.604,COM14, 2000-00-06 17:25:58.378, 0.097, 0.120, 0.930, 0.366, -0.427, -9.399, -0.665, -1.692, 45.758, -11.820, 17.380, -34.140, 31.52,,,,,,,,,,,,,,,,
 19:05:57.619,COM13, 2000-00-00 00:27:18.775, -0.029, -0.001, 0.989, -5.249, 0.000, 88.806, 3.164, 4.581, -134.995, -6.073, 26.333, -46.260, 31.30,,,,,,,,,,,,,,,,
 19:05:57.619,COM13, 2000-00-00 00:27:18.795, -0.054, 0.032, 0.953, -7.507, 1.831, 84.839, 3.115, 4.570, -133.297, -6.193, 27.080, -46.933, 31.28,,,,,,,,,,,,,,,,
 19:05:57.619,COM16, 2000-00-00 00:26:00.680, 0.139, 0.120, 0.926, -7.996, -6.042, -8.545, -1.340, -1.165, 12.667, 1.807, 30.607, -35.900, 31.30,,,,,,,,,,,,,,,,
 19:05:57.619,COM16, 2000-00-00 00:26:00.690, 0.139, 0.005, 1.093, -1.343, -3.113, -8.057, -1.329, -1.214, 12.552, 1.847, 30.547, -35.813, 31.34,,,,,,,,,,,,,,,,
 19:05:57.635,COM16, 2000-00-00 00:26:00.700, 0.024, 0.005, 1.093, -1.343, -3.113, -8.057, -1.318, -1.263, 12.442, 1.860, 30.487, -35.793, 31.34,,,,,,,,,,,,,,,,
 19:05:57.635,COM16, 2000-00-00 00:26:00.710, 0.024, 0.104, 0.956, 13.428, 11.780, -8.362, -1.159, -1.165, 12.327, 1.893, 31.033, -35.760, 31.34,,,,,,,,,,,,,,,,
 19:05:57.635,COM16, 2000-00-00 00:26:00.720, -0.012, 0.104, 0.956, 13.428, 11.780, -8.362, -1.000, -1.060, 12.206, 1.953, 31.147, -35.573, 31.34,,,,,,,,,,,,,,,,
 19:05:57.635,COM14, 2000-00-06 17:25:58.398, -0.079, 0.018, 1.078, -1.892, 0.000, -9.644, -0.615, -1.714, 45.571, -11.667, 17.333, -34.060, 31.49,,,,,,,,,,,,,,,,
 19:05:57.650,COM16, 2000-00-00 00:26:00.730, -0.012, 0.046, 0.947, -2.747, -3.235, -9.705, -1.005, -1.110, 12.079, 2.033, 30.953, -35.300, 31.38,,,,,,,,,,,,,,,,
 19:05:57.650,COM16, 2000-00-00 00:26:00.740, 0.028, 0.046, 0.947, -2.747, -3.235, -9.705, -1.005, -1.154, 11.948, 2.113, 31.113, -35.120, 31.38,,,,,,,,,,,,,,,,
 19:05:57.650,COM16, 2000-00-00 00:26:00.750, 0.028, 0.150, 1.054, -11.414, -10.498, -9.705, -1.088, -1.274, 11.821, 2.220, 31.493, -35.040, 31.37,,,,,,,,,,,,,,,,
 19:05:57.650,COM14, 2000-00-06 17:25:58.418, 0.157, 0.159, 1.027, 0.549, 0.122, -10.681, -0.593, -1.730, 45.374, -11.547, 17.007, -33.987, 31.52,,,,,,,,,,,,,,,,
 19:05:57.666,COM16, 2000-00-00 00:26:00.760, 0.158, 0.150, 1.054, -11.414, -10.498, -9.705, -1.170, -1.390, 11.689, 2.020, 31.787, -34.993, 31.37,,,,,,,,,,,,,,,,
 19:05:57.666,COM16, 2000-00-00 00:26:00.770, 0.158, -0.038, 1.091, 9.155, 8.972, -9.521, -1.049, -1.313, 11.563, 2.127, 32.020, -35.020, 31.34,,,,,,,,,,,,,,,,
 19:05:57.666,COM16, 2000-00-00 00:26:00.780, -0.073, -0.038, 1.091, 9.155, 8.972, -9.521, -0.928, -1.241, 11.437, 2.220, 32.180, -35.007, 31.34,,,,,,,,,,,,,,,,
 19:05:57.666,COM14, 2000-00-06 17:25:58.438, -0.006, -0.034, 1.012, 1.648, 0.061, -11.108, -0.516, -1.736, 45.154, -11.420, 17.440, -34.000, 31.49,,,,,,,,,,,,,,,,
 19:05:57.666,COM14, 2000-00-06 17:25:58.458, 0.101, 0.143, 0.884, -0.977, 0.000, -11.108, -0.450, -1.747, 44.934, -11.293, 17.340, -34.100, 31.49,,,,,,,,,,,,,,,,
 19:05:57.681,COM13, 2000-00-00 00:27:18.815, -0.069, 0.040, 1.002, -4.822, 5.310, 88.013, 3.120, 4.625, -131.534, -6.393, 28.167, -47.573, 31.31,,,,,,,,,,,,,,,,
 19:05:57.681,COM13, 2000-00-00 00:27:18.835, 0.004, -0.021, 1.101, -5.066, -1.465, 85.327, 3.115, 4.548, -129.825, -7.040, 29.120, -48.433, 31.30,,,,,,,,,,,,,,,,
 19:05:57.681,COM13, 2000-00-00 00:27:18.855, -0.062, 0.089, 0.902, -5.554, -2.014, 86.914, 3.098, 4.460, -128.090, -7.500, 29.913, -48.947, 31.30,,,,,,,,,,,,,,,,
 19:05:57.682,COM16, 2000-00-00 00:26:00.790, -0.073, 0.202, 0.919, 13.611, 11.292, -9.644, -0.769, -1.143, 11.305, 1.693, 32.307, -34.927, 31.34,,,,,,,,,,,,,,,,
 19:05:57.682,COM16, 2000-00-00 00:26:00.800, 0.018, 0.202, 0.919, 13.611, 11.292, -9.644, -0.599, -1.044, 11.168, 1.287, 32.387, -34.893, 31.34,,,,,,,,,,,,,,,,
 19:05:57.682,COM16, 2000-00-00 00:26:00.810, 0.018, 0.111, 0.958, -23.560, -20.874, -11.597, -0.797, -1.258, 11.014, 0.980, 32.407, -34.813, 31.32,,,,,,,,,,,,,,,,
 19:05:57.697,COM16, 2000-00-00 00:26:00.820, 0.176, 0.111, 0.958, -23.560, -20.874, -11.597, -0.994, -1.478, 10.854, 0.780, 32.420, -34.647, 31.32,,,,,,,,,,,,,,,,
 19:05:57.697,COM16, 2000-00-00 00:26:00.830, 0.176, -0.078, 1.038, 5.432, 2.319, -10.803, -0.906, -1.467, 10.701, 0.620, 32.460, -34.513, 31.31,,,,,,,,,,,,,,,,
 19:05:57.697,COM13, 2000-00-00 00:27:18.875, -0.014, 0.005, 0.993, -6.042, 3.479, 86.975, 3.076, 4.482, -126.348, -7.893, 30.827, -49.587, 31.24,,,,,,,,,,,,,,,,
 19:05:57.698,COM14, 2000-00-06 17:25:58.478, -0.051, -0.052, 1.078, -0.610, 0.427, -12.146, -0.412, -1.758, 44.703, -11.547, 17.640, -34.033, 31.50,,,,,,,,,,,,,,,,
 19:05:57.713,COM13, 2000-00-00 00:27:18.895, -0.045, 0.083, 1.000, -6.409, 2.075, 88.379, 3.054, 4.477, -124.579, -8.273, 31.367, -50.173, 31.29,,,,,,,,,,,,,,,,
 19:05:57.729,COM14, 2000-00-06 17:25:58.498, 0.054, 0.170, 0.969, 0.183, -0.183, -12.634, -0.368, -1.763, 44.462, -11.993, 17.247, -33.873, 31.52,,,,,,,,,,,,,,,,
 19:05:57.729,COM14, 2000-00-06 17:25:58.518, -0.078, 0.062, 0.956, 0.305, -0.305, -12.146, -0.308, -1.774, 44.209, -12.727, 17.307, -33.813, 31.49,,,,,,,,,,,,,,,,
 19:05:57.745,COM16, 2000-00-00 00:26:00.840, -0.050, -0.078, 1.038, 5.432, 2.319, -10.803, -0.824, -1.461, 10.552, 0.460, 32.493, -34.427, 31.31,,,,,,,,,,,,,,,,
 19:05:57.745,COM16, 2000-00-00 00:26:00.850, -0.050, 0.179, 1.027, 18.005, 15.564, -11.230, -0.615, -1.318, 10.399, 0.333, 32.520, -34.287, 31.35,,,,,,,,,,,,,,,,
 19:05:57.745,COM16, 2000-00-00 00:26:00.860, 0.018, 0.179, 1.027, 18.005, 15.564, -11.230, -0.401, -1.176, 10.234, 0.220, 32.500, -34.160, 31.35,,,,,,,,,,,,,,,,
 19:05:57.745,COM13, 2000-00-00 00:27:18.915, -0.010, -0.031, 1.039, -6.409, 0.061, 88.257, 3.021, 4.427, -122.811, -8.673, 31.920, -50.927, 31.33,,,,,,,,,,,,,,,,
 19:05:57.760,COM13, 2000-00-00 00:27:18.935, -0.075, 0.058, 0.913, -6.775, 1.587, 86.487, 2.983, 4.417, -121.080, -8.893, 32.953, -51.467, 31.30,,,,,,,,,,,,,,,,
 19:05:57.760,COM16, 2000-00-00 00:26:00.870, 0.018, 0.042, 0.956, -9.216, -6.165, -12.634, -0.461, -1.247, 10.063, 0.187, 32.440, -34.073, 31.34,,,,,,,,,,,,,,,,
 19:05:57.760,COM16, 2000-00-00 00:26:00.880, 0.044, 0.042, 0.956, -9.216, -6.165, -12.634, -0.522, -1.318, 9.893, 0.200, 32.353, -33.893, 31.34,,,,,,,,,,,,,,,,
 19:05:57.760,COM14, 2000-00-06 17:25:58.538, 0.012, 0.128, 1.078, -2.747, -0.977, -12.695, -0.258, -1.791, 43.962, -13.187, 18.053, -33.820, 31.49,,,,,,,,,,,,,,,,
 19:05:57.776,COM14, 2000-00-06 17:25:58.558, 0.138, 0.035, 1.018, 1.526, 0.732, -13.733, -0.231, -1.791, 43.704, -13.427, 18.553, -33.787, 31.51,,,,,,,,,,,,,,,,
 19:05:57.776,COM16, 2000-00-00 00:26:00.890, 0.044, 0.157, 1.007, -12.878, -14.221, -12.756, -0.615, -1.467, 9.723, 0.187, 32.253, -33.667, 31.32,,,,,,,,,,,,,,,,
 19:05:57.776,COM16, 2000-00-00 00:26:00.900, 0.107, 0.157, 1.007, -12.878, -14.221, -12.756, -0.709, -1.620, 9.553, 0.193, 32.787, -33.467, 31.32,,,,,,,,,,,,,,,,
 19:05:57.776,COM16, 2000-00-00 00:26:00.910, 0.107, -0.006, 1.053, 14.221, 13.855, -11.902, -0.527, -1.489, 9.388, 0.253, 33.207, -33.387, 31.36,,,,,,,,,,,,,,,,
 19:05:57.792,COM16, 2000-00-00 00:26:00.920, -0.174, -0.006, 1.053, 14.221, 13.855, -11.902, -0.357, -1.362, 9.234, 0.353, 33.547, -33.507, 31.36,,,,,,,,,,,,,,,,
 19:05:57.792,COM16, 2000-00-00 00:26:00.930, -0.174, 0.301, 0.966, 5.798, 3.235, -13.000, -0.258, -1.340, 9.058, 0.133, 33.807, -33.580, 31.37,,,,,,,,,,,,,,,,
 19:05:57.792,COM16, 2000-00-00 00:26:00.940, 0.101, 0.301, 0.966, 5.798, 3.235, -13.000, -0.159, -1.307, 8.877, 0.013, 33.980, -33.547, 31.37,,,,,,,,,,,,,,,,
 19:05:57.792,COM13, 2000-00-00 00:27:18.955, -0.019, -0.033, 1.054, -5.066, 6.287, 86.731, 2.977, 4.493, -119.344, -9.000, 34.007, -52.013, 31.30,,,,,,,,,,,,,,,,
 19:05:57.792,COM13, 2000-00-00 00:27:18.975, -0.053, 0.062, 1.030, -6.042, -3.662, 84.717, 2.944, 4.378, -117.653, -9.220, 34.440, -52.507, 31.28,,,,,,,,,,,,,,,,
 19:05:57.807,COM14, 2000-00-06 17:25:58.578, -0.165, 0.086, 0.969, -0.122, 0.366, -14.343, -0.148, -1.774, 43.423, -13.547, 18.887, -33.773, 31.49,,,,,,,,,,,,,,,,
 19:05:57.807,COM14, 2000-00-06 17:25:58.598, 0.165, 0.149, 0.888, 0.000, 0.000, -14.221, -0.088, -1.769, 43.138, -13.560, 19.100, -33.887, 31.51,,,,,,,,,,,,,,,,
 19:05:57.823,COM13, 2000-00-00 00:27:18.995, -0.041, 0.042, 0.934, -4.883, 1.526, 88.745, 2.944, 4.367, -115.873, -8.820, 34.847, -52.993, 31.30,,,,,,,,,,,,,,,,
 19:05:57.839,COM14, 2000-00-06 17:25:58.618, -0.084, -0.027, 1.207, 0.000, -0.061, -14.954, -0.022, -1.752, 42.852, -13.493, 19.233, -33.840, 31.49,,,,,,,,,,,,,,,,
 19:05:57.854,COM13, 2000-00-00 00:27:19.015, -0.005, -0.021, 1.060, -7.263, 0.916, 84.290, 2.889, 4.345, -114.186, -9.140, 35.633, -53.420, 31.30,,,,,,,,,,,,,,,,
 19:05:57.854,COM13, 2000-00-00 00:27:19.035, -0.035, 0.092, 0.959, -5.005, 0.916, 87.341, 2.884, 4.323, -112.440, -9.680, 36.540, -54.100, 31.29,,,,,,,,,,,,,,,,
 19:05:57.854,COM16, 2000-00-00 00:26:00.950, 0.101, -0.069, 0.960, -17.700, -14.465, -14.526, -0.297, -1.456, 8.685, -0.420, 34.113, -33.460, 31.36,,,,,,,,,,,,,,,,
 19:05:57.854,COM16, 2000-00-00 00:26:00.960, 0.036, -0.069, 0.960, -17.700, -14.465, -14.526, -0.434, -1.604, 8.487, -0.747, 34.200, -33.313, 31.36,,,,,,,,,,,,,,,,
 19:05:57.869,COM16, 2000-00-00 00:26:00.970, 0.036, 0.169, 1.053, 12.329, 7.874, -13.977, -0.275, -1.533, 8.295, -0.993, 34.260, -33.147, 31.34,,,,,,,,,,,,,,,,
 19:05:57.869,COM16, 2000-00-00 00:26:00.980, -0.067, 0.169, 1.053, 12.329, 7.874, -13.977, -0.115, -1.456, 8.102, -1.200, 34.327, -33.073, 31.34,,,,,,,,,,,,,,,,
 19:05:57.869,COM16, 2000-00-00 00:26:00.990, -0.067, 0.156, 0.979, 8.362, 8.667, -14.526, 0.011, -1.373, 7.905, -1.367, 34.347, -33.060, 31.34,,,,,,,,,,,,,,,,
 19:05:57.885,COM16, 2000-00-00 00:26:01.000, 0.079, 0.156, 0.979, 8.362, 8.667, -14.526, 0.137, -1.291, 7.701, -1.480, 34.300, -33.007, 31.34,,,,,,,,,,,,,,,,
 19:05:57.885,COM16, 2000-00-00 00:26:01.010, 0.079, 0.042, 0.998, -8.118, -9.705, -15.381, 0.093, -1.384, 7.493, -1.547, 34.247, -32.753, 31.33,,,,,,,,,,,,,,,,
 19:05:57.885,COM16, 2000-00-00 00:26:01.020, -0.024, 0.042, 0.998, -8.118, -9.705, -15.381, 0.049, -1.489, 7.284, -1.567, 34.193, -32.407, 31.33,,,,,,,,,,,,,,,,
 19:05:57.885,COM14, 2000-00-06 17:25:58.638, 0.004, 0.093, 0.854, 0.305, -0.305, -15.930, 0.033, -1.752, 42.545, -13.433, 19.293, -33.847, 31.52,,,,,,,,,,,,,,,,
 19:05:57.885,COM14, 2000-00-06 17:25:58.658, -0.097, 0.111, 0.953, -1.587, 0.244, -15.747, 0.088, -1.741, 42.226, -13.360, 19.393, -33.820, 31.51,,,,,,,,,,,,,,,,
 19:05:57.885,COM13, 2000-00-00 00:27:19.055, -0.020, -0.013, 1.011, -7.202, -0.549, 87.891, 2.829, 4.268, -110.682, -9.540, 37.267, -54.293, 31.32,,,,,,,,,,,,,,,,
 19:05:57.886,COM13, 2000-00-00 00:27:19.075, -0.083, 0.021, 0.894, -5.554, 4.700, 86.365, 2.813, 4.318, -108.951, -9.380, 37.887, -54.620, 31.29,,,,,,,,,,,,,,,,
 19:05:57.901,COM16, 2000-00-00 00:26:01.030, -0.024, 0.078, 1.039, -8.850, -7.385, -16.174, 0.000, -1.560, 7.075, -1.580, 34.127, -32.247, 31.33,,,,,,,,,,,,,,,,
 19:05:57.901,COM16, 2000-00-00 00:26:01.040, 0.022, 0.078, 1.039, -8.850, -7.385, -16.174, -0.049, -1.637, 6.861, -1.580, 34.060, -32.073, 31.33,,,,,,,,,,,,,,,,
 19:05:57.916,COM13, 2000-00-00 00:27:19.095, -0.028, 0.012, 1.142, -5.493, 4.578, 85.083, 2.791, 4.373, -107.249, -9.900, 38.533, -55.120, 31.29,,,,,,,,,,,,,,,,
 19:05:57.916,COM14, 2000-00-06 17:25:58.678, 0.095, 0.120, 1.092, -2.380, -0.671, -16.174, 0.115, -1.725, 41.907, -13.520, 19.347, -33.860, 31.52,,,,,,,,,,,,,,,,
 19:05:57.916,COM14, 2000-00-06 17:25:58.698, 0.074, 0.028, 1.149, 3.052, 0.183, -17.334, 0.159, -1.708, 41.578, -14.340, 19.307, -33.840, 31.50,,,,,,,,,,,,,,,,
 19:05:57.932,COM13, 2000-00-00 00:27:19.115, -0.038, 0.098, 0.987, -10.803, -6.470, 84.412, 2.664, 4.208, -105.562, -9.727, 39.267, -55.660, 31.34,,,,,,,,,,,,,,,,
 19:05:57.947,COM14, 2000-00-06 17:25:58.718, -0.006, 0.085, 0.834, 0.061, 0.183, -18.677, 0.264, -1.686, 41.226, -14.933, 19.327, -33.833, 31.50,,,,,,,,,,,,,,,,
 19:05:57.947,COM14, 2000-00-06 17:25:58.738, 0.008, 0.045, 0.939, -0.671, 2.197, -19.958, 0.324, -1.664, 40.842, -15.247, 19.327, -33.833, 31.50,,,,,,,,,,,,,,,,
 19:05:57.963,COM13, 2000-00-00 00:27:19.135, -0.001, 0.009, 0.949, -5.859, 0.244, 90.271, 2.648, 4.180, -103.755, -10.273, 39.933, -56.233, 31.28,,,,,,,,,,,,,,,,
 19:05:57.978,COM14, 2000-00-06 17:25:58.758, -0.154, 0.105, 1.116, -0.244, -1.282, -20.020, 0.368, -1.626, 40.446, -15.307, 19.260, -33.720, 31.51,,,,,,,,,,,,,,,,
 19:05:57.994,COM13, 2000-00-00 00:27:19.155, -0.024, 0.006, 0.987, -5.676, 0.366, 91.064, 2.631, 4.153, -101.937, -10.347, 40.973, -56.680, 31.30,,,,,,,,,,,,,,,,
 19:05:57.994,COM13, 2000-00-00 00:27:19.175, -0.013, 0.055, 1.014, -4.517, 1.953, 93.201, 2.637, 4.158, -100.069, -11.093, 41.500, -57.180, 31.31,,,,,,,,,,,,,,,,
 19:05:58.025,COM16, 2000-00-00 00:26:01.050, 0.022, 0.118, 0.973, 21.484, 20.203, -15.442, 0.203, -1.434, 6.652, -1.540, 34.040, -31.873, 31.34,,,,,,,,,,,,,,,,
 19:05:58.025,COM13, 2000-00-00 00:27:19.195, -0.025, -0.033, 0.938, -5.981, 1.343, 89.478, 2.609, 4.147, -98.278, -11.333, 42.240, -57.507, 31.30,,,,,,,,,,,,,,,,
 19:05:58.026,COM14, 2000-00-06 17:25:58.778, -0.017, 0.054, 0.932, -0.061, -1.587, -19.470, 0.423, -1.642, 40.045, -15.333, 19.287, -33.680, 31.48,,,,,,,,,,,,,,,,
 19:05:58.041,COM16, 2000-00-00 00:26:01.060, -0.134, 0.118, 0.973, 21.484, 20.203, -15.442, 0.450, -1.230, 6.449, -1.480, 34.053, -31.793, 31.34,,,,,,,,,,,,,,,,
 19:05:58.041,COM16, 2000-00-00 00:26:01.070, -0.134, 0.246, 0.966, -4.822, -6.042, -16.785, 0.439, -1.291, 6.229, -1.420, 34.067, -31.647, 31.34,,,,,,,,,,,,,,,,
 19:05:58.041,COM16, 2000-00-00 00:26:01.080, 0.134, 0.246, 0.966, -4.822, -6.042, -16.785, 0.439, -1.340, 6.010, -1.347, 34.047, -31.380, 31.34,,,,,,,,,,,,,,,,
 19:05:58.041,COM16, 2000-00-00 00:26:01.090, 0.134, 0.024, 1.014, -18.738, -18.677, -18.127, 0.302, -1.522, 5.784, -1.240, 34.013, -31.160, 31.31,,,,,,,,,,,,,,,,
 19:05:58.041,COM14, 2000-00-06 17:25:58.798, -0.083, 0.109, 0.849, -4.578, -0.977, -19.958, 0.461, -1.637, 39.650, -15.360, 19.313, -33.720, 31.48,,,,,,,,,,,,,,,,
 19:05:58.042,COM14, 2000-00-06 17:25:58.818, -0.091, 0.081, 1.109, -3.723, -0.610, -21.484, 0.434, -1.620, 39.243, -15.247, 19.313, -33.640, 31.49,,,,,,,,,,,,,,,,
 19:05:58.056,COM16, 2000-00-00 00:26:01.100, 0.000, 0.024, 1.014, -18.738, -18.677, -18.127, 0.159, -1.708, 5.554, -1.767, 33.967, -31.060, 31.31,,,,,,,,,,,,,,,,
 19:05:58.056,COM16, 2000-00-00 00:26:01.110, 0.000, 0.072, 1.056, 20.203, 16.785, -18.982, 0.401, -1.538, 5.317, -2.167, 33.913, -31.107, 31.35,,,,,,,,,,,,,,,,
 19:05:58.056,COM16, 2000-00-00 00:26:01.120, 0.030, 0.072, 1.056, 20.203, 16.785, -18.982, 0.637, -1.368, 5.076, -2.500, 33.853, -31.167, 31.35,,,,,,,,,,,,,,,,
 19:05:58.056,COM13, 2000-00-00 00:27:19.215, -0.095, 0.033, 0.899, -7.019, 10.498, 87.708, 2.560, 4.318, -96.520, -11.013, 42.793, -57.920, 31.30,,,,,,,,,,,,,,,,
 19:05:58.056,COM13, 2000-00-00 00:27:19.235, -0.045, 0.027, 1.180, -6.287, 6.226, 88.745, 2.527, 4.411, -94.746, -11.487, 43.147, -58.340, 31.27,,,,,,,,,,,,,,,,
 19:05:58.071,COM16, 2000-00-00 00:26:01.130, 0.030, 0.140, 0.922, 15.991, 13.855, -20.020, 0.835, -1.230, 4.828, -2.740, 33.793, -31.173, 31.33,,,,,,,,,,,,,,,,
 19:05:58.071,COM16, 2000-00-00 00:26:01.140, -0.065, 0.140, 0.922, 15.991, 13.855, -20.020, 1.027, -1.093, 4.576, -2.920, 33.733, -31.067, 31.33,,,,,,,,,,,,,,,,
 19:05:58.071,COM16, 2000-00-00 00:26:01.150, -0.065, 0.146, 0.995, -24.292, -23.804, -20.081, 0.824, -1.324, 4.323, -3.007, 34.273, -30.907, 31.36,,,,,,,,,,,,,,,,
 19:05:58.071,COM14, 2000-00-06 17:25:58.838, -0.096, 0.111, 1.229, 1.770, 0.122, -22.522, 0.450, -1.588, 38.809, -15.100, 19.400, -33.687, 31.54,,,,,,,,,,,,,,,,
 19:05:58.071,COM14, 2000-00-06 17:25:58.858, -0.024, 0.080, 0.888, 1.404, 0.427, -22.522, 0.544, -1.533, 38.353, -15.013, 19.140, -33.787, 31.48,,,,,,,,,,,,,,,,
 19:05:58.087,COM16, 2000-00-00 00:26:01.160, -0.044, 0.146, 0.995, -24.292, -23.804, -20.081, 0.626, -1.560, 4.065, -2.993, 34.667, -30.767, 31.36,,,,,,,,,,,,,,,,
 19:05:58.087,COM16, 2000-00-00 00:26:01.170, -0.044, 0.027, 1.082, -12.268, -8.667, -19.897, 0.544, -1.637, 3.818, -2.987, 35.013, -30.687, 31.34,,,,,,,,,,,,,,,,
 19:05:58.087,COM16, 2000-00-00 00:26:01.180, -0.063, 0.027, 1.082, -12.268, -8.667, -19.897, 0.461, -1.714, 3.565, -3.000, 35.300, -30.700, 31.34,,,,,,,,,,,,,,,,
 19:05:58.087,COM13, 2000-00-00 00:27:19.255, -0.042, -0.019, 1.030, -6.348, -5.066, 87.646, 2.494, 4.279, -92.994, -11.860, 43.987, -58.620, 31.30,,,,,,,,,,,,,,,,
 19:05:58.087,COM13, 2000-00-00 00:27:19.275, -0.037, 0.012, 0.954, -6.226, -2.747, 85.876, 2.455, 4.202, -91.274, -11.853, 44.427, -58.987, 31.25,,,,,,,,,,,,,,,,
 19:05:58.103,COM16, 2000-00-00 00:26:01.190, -0.063, 0.162, 0.960, 24.780, 24.353, -20.508, 0.747, -1.461, 3.312, -3.007, 35.513, -30.773, 31.34,,,,,,,,,,,,,,,,
 19:05:58.103,COM16, 2000-00-00 00:26:01.200, -0.164, 0.162, 0.960, 24.780, 24.353, -20.508, 1.038, -1.203, 3.060, -3.013, 35.700, -30.760, 31.34,,,,,,,,,,,,,,,,
 19:05:58.103,COM14, 2000-00-06 17:25:58.878, -0.113, 0.058, 0.958, -0.610, 2.075, -24.231, 0.626, -1.461, 37.892, -14.840, 18.227, -33.760, 31.51,,,,,,,,,,,,,,,,
 19:05:58.103,COM14, 2000-00-06 17:25:58.898, -0.158, 0.088, 1.025, -0.183, 1.221, -25.452, 0.676, -1.368, 37.403, -14.700, 17.820, -33.813, 31.45,,,,,,,,,,,,,,,,
 19:05:58.119,COM16, 2000-00-00 00:26:01.210, -0.164, 0.273, 0.962, -7.080, -5.188, -22.400, 1.011, -1.241, 2.785, -2.980, 35.840, -30.700, 31.34,,,,,,,,,,,,,,,,
 19:05:58.119,COM16, 2000-00-00 00:26:01.220, 0.016, 0.273, 0.962, -7.080, -5.188, -22.400, 0.989, -1.269, 2.505, -2.887, 35.947, -30.620, 31.34,,,,,,,,,,,,,,,,
 19:05:58.119,COM16, 2000-00-00 00:26:01.230, 0.016, 0.081, 1.027, -18.433, -19.836, -22.583, 0.851, -1.450, 2.225, -3.407, 36.047, -30.500, 31.32,,,,,,,,,,,,,,,,
 19:05:58.119,COM13, 2000-00-00 00:27:19.295, -0.022, 0.047, 0.979, -6.897, -0.183, 86.365, 2.401, 4.175, -89.550, -12.060, 45.040, -59.393, 31.30,,,,,,,,,,,,,,,,
 19:05:58.134,COM16, 2000-00-00 00:26:01.240, -0.088, 0.081, 1.027, -18.433, -19.836, -22.583, 0.720, -1.626, 1.945, -3.813, 36.127, -30.360, 31.32,,,,,,,,,,,,,,,,
 19:05:58.134,COM16, 2000-00-00 00:26:01.250, -0.088, 0.092, 1.032, 18.433, 13.611, -22.644, 0.950, -1.472, 1.664, -4.133, 36.207, -30.240, 31.34,,,,,,,,,,,,,,,,
 19:05:58.134,COM16, 2000-00-00 00:26:01.260, -0.112, 0.092, 1.032, 18.433, 13.611, -22.644, 1.181, -1.313, 1.384, -4.387, 35.987, -30.147, 31.34,,,,,,,,,,,,,,,,
 19:05:58.134,COM14, 2000-00-06 17:25:58.918, 0.065, 0.024, 1.018, 0.977, -0.977, -23.682, 0.736, -1.296, 36.903, -15.727, 17.367, -33.873, 31.52,,,,,,,,,,,,,,,,
 19:05:58.150,COM13, 2000-00-00 00:27:19.315, 0.043, -0.036, 1.035, -6.287, -1.892, 87.097, 2.362, 4.114, -87.808, -12.247, 45.807, -59.727, 31.29,,,,,,,,,,,,,,,,
 19:05:58.150,COM13, 2000-00-00 00:27:19.335, -0.029, -0.050, 0.917, -5.859, -1.099, 81.726, 2.313, 4.065, -86.171, -12.353, 46.327, -60.167, 31.26,,,,,,,,,,,,,,,,
 19:05:58.150,COM16, 2000-00-00 00:26:01.270, -0.112, 0.210, 0.955, 16.296, 14.771, -24.658, 1.390, -1.143, 1.082, -4.600, 36.127, -30.167, 31.37,,,,,,,,,,,,,,,,
 19:05:58.150,COM16, 2000-00-00 00:26:01.280, -0.081, 0.210, 0.955, 16.296, 14.771, -24.658, 1.599, -0.967, 0.780, -4.767, 36.193, -30.340, 31.37,,,,,,,,,,,,,,,,
 19:05:58.151,COM16, 2000-00-00 00:26:01.290, -0.081, 0.084, 0.943, -13.916, -13.733, -25.513, 1.505, -1.077, 0.461, -4.873, 36.200, -30.500, 31.37,,,,,,,,,,,,,,,,
 19:05:58.165,COM14, 2000-00-06 17:25:58.938, 0.141, 0.050, 0.822, -2.869, -1.221, -23.560, 0.786, -1.247, 36.425, -16.320, 17.073, -33.820, 31.51,,,,,,,,,,,,,,,,
 19:05:58.165,COM16, 2000-00-00 00:26:01.300, -0.010, 0.084, 0.943, -13.916, -13.733, -25.513, 1.412, -1.187, 0.148, -4.907, 36.187, -30.480, 31.37,,,,,,,,,,,,,,,,
 19:05:58.181,COM14, 2000-00-06 17:25:58.958, -0.172, 0.085, 1.067, -3.662, 0.122, -28.198, 0.775, -1.203, 35.931, -16.533, 16.913, -33.867, 31.49,,,,,,,,,,,,,,,,
 19:05:58.197,COM14, 2000-00-06 17:25:58.978, -0.141, 0.135, 1.091, -1.587, -0.183, -29.541, 0.764, -1.165, 35.359, -16.640, 16.820, -33.807, 31.52,,,,,,,,,,,,,,,,
 19:05:58.197,COM16, 2000-00-00 00:26:01.310, -0.010, -0.034, 1.050, -3.845, -5.310, -22.949, 1.412, -1.214, -0.132, -4.920, 36.220, -30.507, 31.34,,,,,,,,,,,,,,,,
 19:05:58.197,COM16, 2000-00-00 00:26:01.320, -0.020, -0.034, 1.050, -3.845, -5.310, -22.949, 1.412, -1.241, -0.417, -4.947, 36.293, -30.567, 31.34,,,,,,,,,,,,,,,,
 19:05:58.212,COM13, 2000-00-00 00:27:19.355, -0.056, 0.090, 0.951, -4.089, 6.348, 83.069, 2.307, 4.158, -84.507, -12.413, 47.040, -60.600, 31.30,,,,,,,,,,,,,,,,
 19:05:58.212,COM13, 2000-00-00 00:27:19.375, -0.080, 0.142, 1.044, -6.958, 5.615, 91.858, 2.274, 4.246, -82.672, -12.607, 47.747, -60.913, 31.28,,,,,,,,,,,,,,,,
 19:05:58.212,COM16, 2000-00-00 00:26:01.330, -0.020, 0.273, 1.028, 8.606, 10.132, -25.269, 1.533, -1.115, -0.720, -4.947, 36.373, -30.567, 31.37,,,,,,,,,,,,,,,,
 19:05:58.212,COM16, 2000-00-00 00:26:01.340, -0.016, 0.273, 1.028, 8.606, 10.132, -25.269, 1.659, -0.989, -1.016, -4.907, 36.413, -30.573, 31.37,,,,,,,,,,,,,,,,
 19:05:58.212,COM16, 2000-00-00 00:26:01.350, -0.016, 0.208, 0.963, -1.709, 0.000, -29.358, 1.686, -0.961, -1.357, -4.833, 36.440, -30.587, 31.31,,,,,,,,,,,,,,,,
 19:05:58.228,COM13, 2000-00-00 00:27:19.395, -0.026, -0.030, 1.041, -7.629, 1.099, 92.102, 2.225, 4.246, -80.826, -12.740, 48.053, -61.300, 31.26,,,,,,,,,,,,,,,,
 19:05:58.229,COM16, 2000-00-00 00:26:01.360, -0.158, 0.208, 0.963, -1.709, 0.000, -29.358, 1.719, -0.939, -1.686, -4.753, 36.480, -30.607, 31.31,,,,,,,,,,,,,,,,
 19:05:58.229,COM14, 2000-00-06 17:25:58.998, -0.071, 0.027, 1.038, 0.244, -0.610, -29.785, 0.797, -1.121, 34.766, -16.660, 16.867, -33.733, 31.49,,,,,,,,,,,,,,,,
 19:05:58.229,COM14, 2000-00-06 17:25:59.018, -0.182, 0.046, 0.889, -0.916, 1.221, -31.189, 0.851, -1.060, 34.162, -16.620, 16.987, -33.753, 31.48,,,,,,,,,,,,,,,,
 19:05:58.259,COM13, 2000-00-00 00:27:19.415, -0.043, 0.024, 0.954, -7.507, -0.122, 89.966, 2.181, 4.202, -79.030, -12.673, 48.873, -61.640, 31.28,,,,,,,,,,,,,,,,
 19:05:58.259,COM13, 2000-00-00 00:27:19.435, -0.025, -0.044, 0.972, -5.371, 3.845, 89.111, 2.137, 4.202, -77.234, -12.667, 50.180, -61.887, 31.30,,,,,,,,,,,,,,,,
 19:05:58.290,COM14, 2000-00-06 17:25:59.038, -0.197, 0.043, 1.017, -2.502, 0.000, -31.982, 0.873, -0.978, 33.530, -16.820, 17.133, -33.707, 31.49,,,,,,,,,,,,,,,,
 19:05:58.290,COM13, 2000-00-00 00:27:19.455, -0.006, -0.054, 1.032, -5.493, 1.770, 84.839, 2.120, 4.252, -75.476, -12.520, 51.173, -62.320, 31.28,,,,,,,,,,,,,,,,
 19:05:58.290,COM13, 2000-00-00 00:27:19.475, -0.066, -0.038, 1.002, -4.883, -0.488, 81.726, 2.087, 4.257, -73.790, -12.807, 51.780, -62.500, 31.30,,,,,,,,,,,,,,,,
 19:05:58.304,COM14, 2000-00-06 17:25:59.058, -0.134, 0.012, 1.068, -1.892, -0.183, -31.799, 0.868, -0.901, 32.893, -17.607, 17.153, -33.813, 31.50,,,,,,,,,,,,,,,,
 19:05:58.320,COM14, 2000-00-06 17:25:59.078, -0.140, 0.008, 0.949, -0.793, 0.793, -31.067, 0.873, -0.807, 32.261, -18.127, 17.233, -33.787, 31.49,,,,,,,,,,,,,,,,
 19:05:58.320,COM14, 2000-00-06 17:25:59.098, 0.067, 0.057, 1.039, -1.404, 0.366, -31.799, 0.884, -0.703, 31.635, -18.427, 17.347, -33.860, 31.49,,,,,,,,,,,,,,,,
 19:05:58.320,COM13, 2000-00-00 00:27:19.495, -0.003, 0.037, 1.001, -2.869, 0.854, 80.872, 2.071, 4.235, -72.164, -12.640, 52.567, -62.813, 31.24,,,,,,,,,,,,,,,,
 19:05:58.336,COM16, 2000-00-00 00:26:01.370, -0.158, 0.160, 0.989, -7.019, -7.507, -29.663, 1.697, -0.989, -2.027, -4.653, 36.507, -30.580, 31.33,,,,,,,,,,,,,,,,
 19:05:58.336,COM16, 2000-00-00 00:26:01.380, -0.112, 0.160, 0.989, -7.019, -7.507, -29.663, 1.675, -1.033, -2.362, -4.560, 36.547, -30.527, 31.33,,,,,,,,,,,,,,,,
 19:05:58.336,COM16, 2000-00-00 00:26:01.390, -0.112, 0.089, 1.011, 4.578, 2.136, -30.151, 1.769, -0.978, -2.708, -5.100, 36.273, -30.520, 31.34,,,,,,,,,,,,,,,,
 19:05:58.336,COM16, 2000-00-00 00:26:01.400, -0.113, 0.089, 1.011, 4.578, 2.136, -30.151, 1.857, -0.923, -3.054, -5.527, 35.753, -30.613, 31.34,,,,,,,,,,,,,,,,
 19:05:58.336,COM13, 2000-00-00 00:27:19.515, -0.024, 0.125, 0.974, -6.592, 0.244, 85.938, 2.071, 4.230, -70.516, -13.753, 52.747, -63.347, 31.29,,,,,,,,,,,,,,,,
 19:05:58.351,COM16, 2000-00-00 00:26:01.410, -0.113, 0.153, 0.989, 4.761, 4.150, -31.738, 1.950, -0.846, -3.417, -5.880, 35.333, -30.647, 31.34,,,,,,,,,,,,,,,,
 19:05:58.351,COM16, 2000-00-00 00:26:01.420, -0.177, 0.153, 0.989, 4.761, 4.150, -31.738, 2.043, -0.769, -3.785, -6.133, 35.007, -30.680, 31.34,,,,,,,,,,,,,,,,
 19:05:58.351,COM16, 2000-00-00 00:26:01.430, -0.177, 0.106, 1.002, -4.883, -3.601, -32.227, 2.038, -0.764, -4.158, -6.293, 34.760, -30.793, 31.38,,,,,,,,,,,,,,,,
 19:05:58.367,COM13, 2000-00-00 00:27:19.535, -0.046, -0.039, 0.982, -6.592, 2.686, 85.815, 2.032, 4.230, -68.796, -12.700, 53.553, -63.347, 31.27,,,,,,,,,,,,,,,,
 19:05:58.367,COM16, 2000-00-00 00:26:01.440, -0.052, 0.106, 1.002, -4.883, -3.601, -32.227, 2.032, -0.758, -4.532, -6.393, 34.547, -30.853, 31.38,,,,,,,,,,,,,,,,
 19:05:58.367,COM16, 2000-00-00 00:26:01.450, -0.052, -0.031, 1.006, 0.610, 0.732, -31.616, 2.076, -0.709, -4.900, -6.467, 34.387, -30.873, 31.30,,,,,,,,,,,,,,,,
 19:05:58.367,COM16, 2000-00-00 00:26:01.460, -0.187, -0.031, 1.006, 0.610, 0.732, -31.616, 2.115, -0.659, -5.268, -6.520, 34.293, -30.947, 31.30,,,,,,,,,,,,,,,,
 19:05:58.382,COM16, 2000-00-00 00:26:01.470, -0.187, 0.106, 0.952, 9.277, 8.057, -30.884, 2.236, -0.533, -5.625, -6.600, 34.267, -31.047, 31.30,,,,,,,,,,,,,,,,
 19:05:58.382,COM16, 2000-00-00 00:26:01.480, -0.122, 0.106, 0.952, 9.277, 8.057, -30.884, 2.357, -0.406, -5.982, -6.700, 34.300, -31.073, 31.30,,,,,,,,,,,,,,,,
 19:05:58.382,COM16, 2000-00-00 00:26:01.490, -0.122, 0.281, 1.016, -2.869, -3.540, -32.593, 2.362, -0.396, -6.356, -6.767, 34.347, -31.087, 31.34,,,,,,,,,,,,,,,,
 19:05:58.382,COM16, 2000-00-00 00:26:01.500, -0.017, 0.281, 1.016, -2.869, -3.540, -32.593, 2.373, -0.385, -6.729, -6.767, 34.393, -31.093, 31.34,,,,,,,,,,,,,,,,
 19:05:58.397,COM16, 2000-00-00 00:26:01.510, -0.017, 0.145, 0.988, -5.981, -6.836, -35.889, 2.351, -0.406, -7.136, -6.720, 34.467, -31.133, 31.37,,,,,,,,,,,,,,,,
 19:05:58.397,COM16, 2000-00-00 00:26:01.520, -0.170, 0.145, 0.988, -5.981, -6.836, -35.889, 2.335, -0.428, -7.531, -6.647, 34.553, -31.180, 31.37,,,,,,,,,,,,,,,,
 19:05:58.397,COM13, 2000-00-00 00:27:19.555, -0.014, 0.025, 0.982, -6.226, 3.540, 86.670, 1.994, 4.268, -67.077, -13.013, 53.900, -63.653, 31.31,,,,,,,,,,,,,,,,
 19:05:58.397,COM13, 2000-00-00 00:27:19.575, -0.062, -0.054, 1.022, -5.066, 3.296, 86.060, 1.967, 4.323, -65.347, -13.060, 54.627, -63.833, 31.31,,,,,,,,,,,,,,,,
 19:05:58.412,COM16, 2000-00-00 00:26:01.530, -0.170, 0.127, 0.999, 5.737, 6.958, -36.194, 2.428, -0.313, -7.927, -6.587, 34.067, -31.220, 31.37,,,,,,,,,,,,,,,,
 19:05:58.412,COM16, 2000-00-00 00:26:01.540, -0.162, 0.127, 0.999, 5.737, 6.958, -36.194, 2.521, -0.192, -8.322, -6.540, 33.673, -31.253, 31.37,,,,,,,,,,,,,,,,
 19:05:58.412,COM16, 2000-00-00 00:26:01.550, -0.162, 0.163, 0.975, 0.854, 0.549, -38.452, 2.571, -0.137, -8.740, -6.507, 33.333, -31.300, 31.35,,,,,,,,,,,,,,,,
 19:05:58.428,COM16, 2000-00-00 00:26:01.560, -0.133, 0.163, 0.975, 0.854, 0.549, -38.452, 2.615, -0.088, -9.157, -6.453, 33.073, -31.373, 31.35,,,,,,,,,,,,,,,,
 19:05:58.428,COM16, 2000-00-00 00:26:01.570, -0.133, 0.017, 0.980, -11.108, -6.836, -38.818, 2.538, -0.099, -9.580, -6.387, 32.867, -31.527, 31.34,,,,,,,,,,,,,,,,
 19:05:58.428,COM13, 2000-00-00 00:27:19.595, -0.021, -0.024, 0.996, -4.883, 2.380, 81.970, 1.950, 4.367, -63.644, -12.940, 54.987, -64.193, 31.29,,,,,,,,,,,,,,,,
 19:05:58.428,COM13, 2000-00-00 00:27:19.615, -0.073, 0.054, 1.040, -3.357, -0.183, 83.313, 1.939, 4.384, -61.996, -13.060, 55.933, -64.493, 31.30,,,,,,,,,,,,,,,,
 19:05:58.459,COM13, 2000-00-00 00:27:19.635, 0.008, 0.076, 0.992, -8.179, -1.038, 84.900, 1.939, 4.362, -60.320, -12.907, 56.440, -64.620, 31.30,,,,,,,,,,,,,,,,
 19:05:58.474,COM13, 2000-00-00 00:27:19.655, -0.046, -0.013, 0.956, -5.066, 0.488, 87.158, 1.884, 4.340, -58.612, -13.293, 57.200, -64.907, 31.28,,,,,,,,,,,,,,,,
 19:05:58.474,COM16, 2000-00-00 00:26:01.580, -0.107, 0.017, 0.980, -11.108, -6.836, -38.818, 2.455, -0.110, -10.003, -6.320, 32.753, -31.587, 31.34,,,,,,,,,,,,,,,,
 19:05:58.474,COM16, 2000-00-00 00:26:01.590, -0.107, 0.029, 1.008, 5.127, 2.502, -37.964, 2.538, -0.038, -10.410, -6.253, 32.713, -31.607, 31.35,,,,,,,,,,,,,,,,
 19:05:58.474,COM16, 2000-00-00 00:26:01.600, -0.208, 0.029, 1.008, 5.127, 2.502, -37.964, 2.609, 0.044, -10.811, -6.167, 32.713, -31.693, 31.35,,,,,,,,,,,,,,,,
 19:05:58.490,COM16, 2000-00-00 00:26:01.610, -0.208, 0.311, 0.972, 11.902, 10.437, -39.978, 2.758, 0.203, -11.234, -6.393, 32.740, -31.853, 31.33,,,,,,,,,,,,,,,,
 19:05:58.490,COM16, 2000-00-00 00:26:01.620, -0.158, 0.311, 0.972, 11.902, 10.437, -39.978, 2.906, 0.368, -11.651, -6.607, 32.800, -32.100, 31.33,,,,,,,,,,,,,,,,
 19:05:58.505,COM13, 2000-00-00 00:27:19.675, -0.013, -0.049, 0.986, -8.423, 3.357, 84.045, 1.862, 4.351, -56.882, -12.847, 57.740, -65.213, 31.26,,,,,,,,,,,,,,,,
 19:05:58.521,COM13, 2000-00-00 00:27:19.695, -0.050, -0.014, 1.026, -2.319, 2.197, 84.473, 1.818, 4.400, -55.201, -13.047, 58.327, -65.567, 31.30,,,,,,,,,,,,,,,,
 19:05:58.536,COM16, 2000-00-00 00:26:01.630, -0.158, 0.199, 0.987, -5.249, -7.202, -43.274, 2.884, 0.357, -12.112, -7.053, 32.880, -32.240, 31.34,,,,,,,,,,,,,,,,
 19:05:58.536,COM16, 2000-00-00 00:26:01.640, -0.141, 0.199, 0.987, -5.249, -7.202, -43.274, 2.867, 0.346, -12.574, -7.347, 32.960, -32.287, 31.34,,,,,,,,,,,,,,,,
 19:05:58.536,COM16, 2000-00-00 00:26:01.650, -0.141, 0.099, 1.027, -1.587, -0.549, -44.861, 2.889, 0.401, -13.046, -7.567, 32.427, -32.440, 31.34,,,,,,,,,,,,,,,,
 19:05:58.536,COM16, 2000-00-00 00:26:01.660, -0.053, 0.099, 1.027, -1.587, -0.549, -44.861, 2.900, 0.461, -13.524, -7.753, 32.040, -32.727, 31.34,,,,,,,,,,,,,,,,
 19:05:58.536,COM13, 2000-00-00 00:27:19.715, -0.054, -0.032, 1.000, -4.639, 2.319, 80.200, 1.840, 4.427, -53.531, -12.733, 59.193, -65.667, 31.27,,,,,,,,,,,,,,,,
 19:05:58.552,COM16, 2000-00-00 00:26:01.670, -0.053, 0.002, 1.009, 6.775, 4.639, -44.617, 2.994, 0.566, -13.991, -7.893, 31.760, -32.933, 31.34,,,,,,,,,,,,,,,,
 19:05:58.567,COM13, 2000-00-00 00:27:19.735, -0.015, 0.035, 1.000, -4.456, 0.366, 80.627, 1.824, 4.449, -51.927, -13.360, 60.040, -66.020, 31.29,,,,,,,,,,,,,,,,
 19:05:58.583,COM16, 2000-00-00 00:26:01.680, -0.141, 0.002, 1.009, 6.775, 4.639, -44.617, 3.087, 0.670, -14.458, -8.007, 31.567, -33.000, 31.34,,,,,,,,,,,,,,,,
 19:05:58.598,COM16, 2000-00-00 00:26:01.690, -0.141, 0.026, 0.930, -2.014, 0.671, -44.373, 3.082, 0.736, -14.925, -8.107, 31.440, -33.093, 31.34,,,,,,,,,,,,,,,,
 19:05:58.599,COM16, 2000-00-00 00:26:01.700, -0.076, 0.026, 0.930, -2.014, 0.671, -44.373, 3.076, 0.802, -15.392, -8.213, 31.380, -33.313, 31.34,,,,,,,,,,,,,,,,
 19:05:58.599,COM16, 2000-00-00 00:26:01.710, -0.076, 0.074, 1.046, 2.075, 0.061, -44.006, 3.109, 0.857, -15.853, -8.280, 31.367, -33.587, 31.34,,,,,,,,,,,,,,,,
 19:05:58.599,COM13, 2000-00-00 00:27:19.755, -0.033, -0.049, 1.000, -4.395, 0.427, 78.247, 1.818, 4.449, -50.323, -12.767, 60.687, -65.860, 31.26,,,,,,,,,,,,,,,,
 19:05:58.599,COM13, 2000-00-00 00:27:19.775, -0.009, 0.093, 0.984, -6.714, 0.061, 79.773, 1.802, 4.444, -48.752, -12.607, 61.180, -66.100, 31.30,,,,,,,,,,,,,,,,
 19:05:58.614,COM16, 2000-00-00 00:26:01.720, -0.243, 0.074, 1.046, 2.075, 0.061, -44.006, 3.137, 0.912, -16.309, -8.287, 31.400, -33.760, 31.34,,,,,,,,,,,,,,,,
 19:05:58.614,COM16, 2000-00-00 00:26:01.730, -0.243, 0.116, 0.940, 0.366, -0.427, -45.776, 3.153, 0.967, -16.782, -8.260, 31.127, -33.880, 31.37,,,,,,,,,,,,,,,,
 19:05:58.630,COM16, 2000-00-00 00:26:01.740, -0.047, 0.116, 0.940, 0.366, -0.427, -45.776, 3.164, 1.027, -17.260, -8.233, 30.613, -33.900, 31.37,,,,,,,,,,,,,,,,
 19:05:58.630,COM16, 2000-00-00 00:26:01.750, -0.047, 0.124, 1.017, 0.366, 1.160, -45.593, 3.175, 1.099, -17.732, -8.207, 30.240, -33.953, 31.31,,,,,,,,,,,,,,,,
 19:05:58.630,COM16, 2000-00-00 00:26:01.760, -0.138, 0.124, 1.017, 0.366, 1.160, -45.593, 3.192, 1.165, -18.193, -8.200, 29.987, -34.167, 31.31,,,,,,,,,,,,,,,,
 19:05:58.631,COM13, 2000-00-00 00:27:19.795, -0.057, -0.098, 0.993, -2.075, 1.099, 80.383, 1.780, 4.438, -47.148, -11.933, 61.833, -66.360, 31.30,,,,,,,,,,,,,,,,
 19:05:58.631,COM13, 2000-00-00 00:27:19.815, -0.010, 0.082, 0.988, -8.606, 3.113, 77.209, 1.785, 4.455, -45.555, -12.513, 62.480, -66.667, 31.26,,,,,,,,,,,,,,,,
 19:05:58.634,COM16, 2000-00-00 00:26:01.770, -0.138, 0.100, 0.957, 1.587, -2.380, -47.241, 3.214, 1.203, -18.677, -8.173, 29.840, -34.500, 31.34,,,,,,,,,,,,,,,,
 19:05:58.639,COM16, 2000-00-00 00:26:01.780, -0.135, 0.100, 0.957, 1.587, -2.380, -47.241, 3.241, 1.236, -19.155, -8.087, 29.720, -34.780, 31.34,,,,,,,,,,,,,,,,
 19:05:58.655,COM13, 2000-00-00 00:27:19.835, -0.068, -0.058, 1.016, -0.732, 1.404, 81.787, 1.736, 4.499, -43.989, -12.340, 62.920, -66.860, 31.30,,,,,,,,,,,,,,,,
 19:05:58.666,COM14, 2000-00-06 17:25:59.118, -0.134, 0.101, 1.018, -1.099, 0.183, -34.668, 0.884, -0.599, 30.981, -18.473, 17.353, -33.927, 31.51,,,,,,,,,,,,,,,,
 19:05:58.672,COM14, 2000-00-06 17:25:59.138, -0.155, 0.028, 0.926, -2.380, 0.000, -35.828, 0.890, -0.516, 30.284, -18.500, 17.507, -33.913, 31.49,,,,,,,,,,,,,,,,
 19:05:58.676,COM14, 2000-00-06 17:25:59.158, -0.138, 0.021, 1.008, -2.747, 0.000, -37.598, 0.873, -0.439, 29.553, -18.387, 17.320, -33.860, 31.49,,,,,,,,,,,,,,,,
 19:05:58.680,COM14, 2000-00-06 17:25:59.178, -0.190, 0.007, 0.982, -2.563, -1.038, -38.452, 0.846, -0.357, 28.801, -18.280, 16.467, -33.967, 31.49,,,,,,,,,,,,,,,,
 19:05:58.685,COM14, 2000-00-06 17:25:59.198, -0.086, -0.010, 1.083, -2.380, 0.244, -38.208, 0.818, -0.280, 28.032, -18.720, 15.953, -34.040, 31.52,,,,,,,,,,,,,,,,
 19:05:58.689,COM13, 2000-00-00 00:27:19.855, -0.028, 0.068, 1.014, -9.216, 1.831, 77.148, 1.763, 4.515, -42.374, -11.993, 63.840, -67.033, 31.30,,,,,,,,,,,,,,,,
 19:05:58.690,COM14, 2000-00-06 17:25:59.218, -0.146, 0.057, 1.015, -1.770, 1.526, -38.940, 0.791, -0.170, 27.263, -19.487, 15.740, -34.100, 31.49,,,,,,,,,,,,,,,,
 19:05:58.694,COM14, 2000-00-06 17:25:59.238, -0.114, 0.088, 1.034, -0.671, 0.671, -42.480, 0.775, -0.055, 26.466, -19.920, 15.593, -34.200, 31.51,,,,,,,,,,,,,,,,
 19:05:58.698,COM14, 2000-00-06 17:25:59.258, -0.164, -0.013, 0.955, -1.221, 0.305, -44.067, 0.780, 0.049, 25.604, -20.053, 15.647, -34.273, 31.52,,,,,,,,,,,,,,,,
 19:05:58.704,COM13, 2000-00-00 00:27:19.875, -0.022, 0.003, 0.991, -2.197, -0.854, 82.275, 1.703, 4.532, -40.809, -11.913, 64.367, -67.347, 31.30,,,,,,,,,,,,,,,,
 19:05:58.704,COM14, 2000-00-06 17:25:59.278, -0.117, -0.010, 0.929, -3.357, 0.366, -45.105, 0.758, 0.148, 24.719, -20.047, 15.793, -34.280, 31.52,,,,,,,,,,,,,,,,
 19:05:58.709,COM14, 2000-00-06 17:25:59.298, -0.145, -0.025, 1.020, -1.526, -0.549, -44.312, 0.703, 0.247, 23.818, -19.967, 15.893, -34.300, 31.50,,,,,,,,,,,,,,,,
 19:05:58.710,COM13, 2000-00-00 00:27:19.895, -0.039, -0.039, 1.000, -6.348, 1.282, 78.064, 1.730, 4.515, -39.183, -11.180, 65.573, -67.640, 31.30,,,,,,,,,,,,,,,,
 19:05:58.713,COM14, 2000-00-06 17:25:59.318, -0.181, -0.003, 1.069, -3.235, 0.610, -44.006, 0.665, 0.341, 22.934, -19.880, 15.433, -34.280, 31.50,,,,,,,,,,,,,,,,
 19:05:58.718,COM14, 2000-00-06 17:25:59.338, -0.124, -0.021, 1.001, -0.671, -0.427, -44.983, 0.610, 0.439, 22.050, -20.640, 14.680, -34.253, 31.52,,,,,,,,,,,,,,,,
 19:05:58.723,COM14, 2000-00-06 17:25:59.358, -0.104, 0.012, 1.038, -2.197, 0.305, -45.654, 0.577, 0.533, 21.149, -21.327, 14.333, -34.340, 31.49,,,,,,,,,,,,,,,,
 19:05:58.729,COM14, 2000-00-06 17:25:59.378, -0.146, 0.038, 0.997, -1.587, 0.916, -46.753, 0.527, 0.637, 20.226, -21.667, 14.147, -34.373, 31.46,,,,,,,,,,,,,,,,
 19:05:58.732,COM14, 2000-00-06 17:25:59.398, -0.113, -0.026, 0.888, -1.160, -0.977, -47.485, 0.489, 0.731, 19.286, -21.813, 14.153, -34.380, 31.48,,,,,,,,,,,,,,,,
 19:05:58.737,COM14, 2000-00-06 17:25:59.418, -0.145, 0.002, 1.073, -3.174, 1.343, -48.401, 0.439, 0.813, 18.331, -21.833, 14.240, -34.387, 31.51,,,,,,,,,,,,,,,,
 19:05:58.739,COM13, 2000-00-00 00:27:19.915, -0.034, 0.120, 0.981, -3.479, 1.282, 84.412, 1.708, 4.526, -37.590, -11.547, 65.967, -68.000, 31.31,,,,,,,,,,,,,,,,
 19:05:58.743,COM14, 2000-00-06 17:25:59.438, -0.145, 0.022, 0.975, -2.075, 0.366, -49.072, 0.368, 0.923, 17.364, -21.813, 13.293, -34.427, 31.49,,,,,,,,,,,,,,,,
 19:05:58.745,COM14, 2000-00-06 17:25:59.458, -0.176, 0.014, 1.110, -2.197, -0.183, -49.988, 0.313, 1.011, 16.375, -21.700, 12.740, -34.447, 31.50,,,,,,,,,,,,,,,,
 19:05:58.745,COM13, 2000-00-00 00:27:19.935, -0.039, -0.103, 0.992, -5.249, 1.648, 80.750, 1.730, 4.543, -35.914, -11.033, 66.800, -68.120, 31.27,,,,,,,,,,,,,,,,
 19:05:58.751,COM14, 2000-00-06 17:25:59.478, -0.122, -0.004, 0.869, -1.404, 1.831, -50.781, 0.253, 1.104, 15.370, -21.900, 12.453, -34.413, 31.50,,,,,,,,,,,,,,,,
 19:05:58.752,COM16, 2000-00-00 00:26:01.790, -0.135, 0.098, 1.044, -2.197, 0.061, -47.974, 3.224, 1.296, -19.638, -8.000, 29.660, -35.053, 31.36,,,,,,,,,,,,,,,,
 19:05:58.757,COM14, 2000-00-06 17:25:59.498, -0.145, -0.001, 1.007, -2.014, 0.488, -51.636, 0.203, 1.219, 14.348, -22.793, 12.340, -34.420, 31.49,,,,,,,,,,,,,,,,
 19:05:58.758,COM16, 2000-00-00 00:26:01.800, -0.040, 0.098, 1.044, -2.197, 0.061, -47.974, 3.208, 1.357, -20.116, -7.940, 29.660, -35.273, 31.36,,,,,,,,,,,,,,,,
 19:05:58.762,COM14, 2000-00-06 17:25:59.518, -0.157, 0.056, 1.093, -2.075, 1.038, -52.856, 0.143, 1.318, 13.310, -23.387, 12.413, -34.280, 31.53,,,,,,,,,,,,,,,,
 19:05:58.763,COM16, 2000-00-00 00:26:01.810, -0.040, 0.019, 0.964, 7.629, 6.165, -48.157, 3.290, 1.472, -20.594, -7.873, 29.707, -35.427, 31.33,,,,,,,,,,,,,,,,
 19:05:58.765,COM14, 2000-00-06 17:25:59.538, -0.138, -0.031, 0.929, -2.380, 0.488, -53.406, 0.082, 1.417, 12.244, -23.700, 11.553, -34.113, 31.49,,,,,,,,,,,,,,,,
 19:05:58.769,COM16, 2000-00-00 00:26:01.820, -0.198, 0.019, 0.964, 7.629, 6.165, -48.157, 3.362, 1.588, -21.061, -7.827, 29.433, -35.553, 31.33,,,,,,,,,,,,,,,,
 19:05:58.771,COM14, 2000-00-06 17:25:59.558, -0.138, 0.062, 1.142, -2.808, 0.977, -54.321, 0.011, 1.505, 11.173, -23.793, 11.093, -34.113, 31.52,,,,,,,,,,,,,,,,
 19:05:58.772,COM16, 2000-00-00 00:26:01.830, -0.198, 0.206, 1.034, 0.061, -0.854, -49.805, 3.362, 1.637, -21.550, -7.787, 28.953, -35.740, 31.34,,,,,,,,,,,,,,,,
 19:05:58.774,COM13, 2000-00-00 00:27:19.955, -0.039, 0.162, 1.000, -10.193, 1.587, 81.482, 1.692, 4.565, -34.299, -11.140, 67.373, -68.287, 31.30,,,,,,,,,,,,,,,,
 19:05:58.777,COM16, 2000-00-00 00:26:01.840, -0.078, 0.206, 1.034, 0.061, -0.854, -49.805, 3.367, 1.686, -22.039, -7.740, 28.627, -35.940, 31.34,,,,,,,,,,,,,,,,
 19:05:58.783,COM16, 2000-00-00 00:26:01.850, -0.078, 0.080, 1.010, 1.709, 0.183, -49.866, 3.389, 1.747, -22.527, -8.313, 28.380, -36.087, 31.37,,,,,,,,,,,,,,,,
 19:05:58.788,COM16, 2000-00-00 00:26:01.860, -0.225, 0.080, 1.010, 1.709, 0.183, -49.866, 3.406, 1.802, -23.016, -8.733, 28.227, -36.187, 31.37,,,,,,,,,,,,,,,,
 19:05:58.790,COM14, 2000-00-06 17:25:59.578, -0.131, 0.030, 0.868, -0.916, -0.061, -54.199, -0.049, 1.599, 10.085, -23.833, 10.787, -34.167, 31.50,,,,,,,,,,,,,,,,
 19:05:58.791,COM16, 2000-00-00 00:26:01.870, -0.225, 0.141, 0.928, 1.282, 1.221, -51.575, 3.417, 1.873, -23.522, -9.087, 28.140, -36.260, 31.34,,,,,,,,,,,,,,,,
 19:05:58.797,COM16, 2000-00-00 00:26:01.880, -0.038, 0.141, 0.928, 1.282, 1.221, -51.575, 3.433, 1.945, -24.038, -9.380, 28.113, -36.433, 31.34,,,,,,,,,,,,,,,,
 19:05:58.802,COM16, 2000-00-00 00:26:01.890, -0.038, 0.153, 1.018, 4.517, 3.052, -51.514, 3.483, 2.038, -24.543, -9.613, 28.100, -36.587, 31.34,,,,,,,,,,,,,,,,
 19:05:58.805,COM16, 2000-00-00 00:26:01.900, -0.146, 0.153, 1.018, 4.517, 3.052, -51.514, 3.527, 2.126, -25.043, -9.767, 27.807, -36.680, 31.34,,,,,,,,,,,,,,,,
 19:05:58.806,COM13, 2000-00-00 00:27:19.975, -0.039, -0.139, 0.998, -1.709, -0.305, 85.693, 1.637, 4.581, -32.646, -10.973, 68.233, -68.560, 31.26,,,,,,,,,,,,,,,,
 19:05:58.811,COM16, 2000-00-00 00:26:01.910, -0.146, 0.099, 0.968, 0.549, -1.770, -53.406, 3.532, 2.164, -25.571, -9.887, 27.340, -36.840, 31.32,,,,,,,,,,,,,,,,
 19:05:58.813,COM13, 2000-00-00 00:27:19.995, -0.042, 0.117, 0.996, -10.315, 1.282, 80.322, 1.653, 4.576, -30.954, -10.853, 68.907, -68.873, 31.26,,,,,,,,,,,,,,,,
 19:05:58.816,COM16, 2000-00-00 00:26:01.920, -0.119, 0.099, 0.968, 0.549, -1.770, -53.406, 3.538, 2.203, -26.098, -9.973, 26.973, -37.060, 31.32,,,,,,,,,,,,,,,,
 19:05:58.821,COM14, 2000-00-06 17:25:59.598, -0.157, -0.031, 1.025, -2.808, 1.770, -54.749, -0.093, 1.681, 8.992, -23.833, 10.800, -34.140, 31.49,,,,,,,,,,,,,,,,
 19:05:58.822,COM16, 2000-00-00 00:26:01.930, -0.119, 0.122, 0.979, 3.723, 6.897, -53.589, 3.576, 2.335, -26.614, -10.020, 26.700, -37.200, 31.36,,,,,,,,,,,,,,,,
 19:05:58.824,COM16, 2000-00-00 00:26:01.940, -0.070, 0.122, 0.979, 3.723, 6.897, -53.589, 3.609, 2.461, -27.136, -10.040, 26.547, -37.407, 31.36,,,,,,,,,,,,,,,,
 19:05:58.829,COM14, 2000-00-06 17:25:59.618, -0.076, 0.083, 0.980, -1.526, 0.977, -54.260, -0.165, 1.785, 7.899, -23.727, 10.880, -34.220, 31.50,,,,,,,,,,,,,,,,
 19:05:58.831,COM16, 2000-00-00 00:26:01.950, -0.070, 0.111, 1.020, 3.357, -1.648, -54.443, 3.636, 2.499, -27.664, -10.047, 26.480, -37.587, 31.38,,,,,,,,,,,,,,,,
 19:05:58.835,COM16, 2000-00-00 00:26:01.960, -0.166, 0.111, 1.020, 3.357, -1.648, -54.443, 3.664, 2.538, -28.185, -10.060, 26.440, -37.613, 31.38,,,,,,,,,,,,,,,,
 19:05:58.838,COM16, 2000-00-00 00:26:01.970, -0.166, 0.085, 1.024, -3.662, -0.854, -54.443, 3.620, 2.587, -28.707, -10.033, 26.440, -37.573, 31.34,,,,,,,,,,,,,,,,
 19:05:58.843,COM13, 2000-00-00 00:27:20.015, -0.018, -0.056, 0.979, -1.221, 0.732, 87.646, 1.593, 4.592, -29.312, -10.540, 69.433, -69.280, 31.31,,,,,,,,,,,,,,,,
 19:05:58.844,COM16, 2000-00-00 00:26:01.980, -0.003, 0.085, 1.024, -3.662, -0.854, -54.443, 3.576, 2.631, -29.229, -10.000, 25.880, -37.580, 31.34,,,,,,,,,,,,,,,,
 19:05:58.848,COM13, 2000-00-00 00:27:20.035, -0.076, 0.044, 1.000, -9.521, 2.808, 82.520, 1.631, 4.614, -27.587, -10.260, 70.273, -69.587, 31.29,,,,,,,,,,,,,,,,
 19:05:58.849,COM16, 2000-00-00 00:26:01.990, -0.003, 0.094, 1.029, 5.554, 1.465, -54.565, 3.625, 2.703, -29.751, -9.967, 25.460, -37.667, 31.36,,,,,,,,,,,,,,,,
 19:05:58.862,COM14, 2000-00-06 17:25:59.638, -0.197, 0.013, 1.056, -3.601, 0.732, -54.749, -0.225, 1.873, 6.806, -23.593, 10.367, -34.313, 31.49,,,,,,,,,,,,,,,,
 19:05:58.868,COM14, 2000-00-06 17:25:59.658, -0.058, -0.014, 0.937, -2.075, 0.671, -53.711, -0.308, 1.950, 5.713, -23.447, 9.620, -34.380, 31.49,,,,,,,,,,,,,,,,
 19:05:58.881,COM16, 2000-00-00 00:26:02.000, -0.134, 0.094, 1.029, 5.554, 1.465, -54.565, 3.669, 2.763, -30.262, -9.913, 25.107, -37.833, 31.36,,,,,,,,,,,,,,,,
 19:05:58.886,COM16, 2000-00-00 00:26:02.010, -0.134, 0.105, 0.905, 2.563, 4.700, -54.688, 3.680, 2.862, -30.773, -9.853, 24.840, -38.033, 31.34,,,,,,,,,,,,,,,,
 19:05:58.892,COM16, 2000-00-00 00:26:02.020, 0.048, 0.105, 0.905, 2.563, 4.700, -54.688, 3.697, 2.961, -31.284, -9.833, 24.667, -38.173, 31.34,,,,,,,,,,,,,,,,
 19:05:58.894,COM16, 2000-00-00 00:26:02.030, 0.048, 0.082, 1.047, 2.014, -0.549, -54.504, 3.702, 2.999, -31.789, -9.807, 24.560, -38.233, 31.35,,,,,,,,,,,,,,,,
 19:05:58.894,COM14, 2000-00-06 17:25:59.678, -0.156, 0.059, 1.002, -2.869, 1.404, -54.138, -0.374, 2.032, 4.636, -23.333, 9.280, -34.413, 31.50,,,,,,,,,,,,,,,,
 19:05:58.901,COM16, 2000-00-00 00:26:02.040, -0.164, 0.082, 1.047, 2.014, -0.549, -54.504, 3.708, 3.038, -32.283, -9.760, 24.480, -38.280, 31.35,,,,,,,,,,,,,,,,
 19:05:58.901,COM14, 2000-00-06 17:25:59.698, -0.070, 0.041, 1.090, -1.953, 1.404, -52.490, -0.445, 2.120, 3.560, -23.567, 9.160, -34.460, 31.51,,,,,,,,,,,,,,,,
 19:05:58.907,COM13, 2000-00-00 00:27:20.055, -0.021, 0.030, 0.993, -3.845, 1.038, 87.402, 1.571, 4.653, -25.906, -10.687, 70.573, -69.880, 31.30,,,,,,,,,,,,,,,,
 19:05:58.912,COM13, 2000-00-00 00:27:20.075, -0.040, -0.061, 1.013, -7.996, 1.038, 84.167, 1.582, 4.669, -24.175, -10.260, 71.313, -70.207, 31.29,,,,,,,,,,,,,,,,
 19:05:58.919,COM13, 2000-00-00 00:27:20.095, -0.076, 0.135, 0.996, -6.897, 0.793, 87.646, 1.533, 4.686, -22.473, -10.460, 72.253, -70.627, 31.30,,,,,,,,,,,,,,,,
 19:05:58.922,COM16, 2000-00-00 00:26:02.050, -0.164, 0.046, 0.937, -1.648, 0.854, -53.833, 3.675, 3.087, -32.772, -9.733, 24.500, -38.327, 31.34,,,,,,,,,,,,,,,,
 19:05:58.927,COM16, 2000-00-00 00:26:02.060, 0.063, 0.046, 0.937, -1.648, 0.854, -53.833, 3.642, 3.142, -33.261, -9.733, 24.567, -38.480, 31.34,,,,,,,,,,,,,,,,
 19:05:58.929,COM16, 2000-00-00 00:26:02.070, 0.063, 0.057, 1.046, 7.385, 5.493, -53.467, 3.697, 3.235, -33.739, -9.707, 24.620, -38.647, 31.33,,,,,,,,,,,,,,,,
 19:05:58.931,COM14, 2000-00-06 17:25:59.718, -0.108, 0.047, 0.956, -1.953, 0.793, -52.063, -0.500, 2.197, 2.505, -23.360, 9.193, -34.467, 31.48,,,,,,,,,,,,,,,,
 19:05:58.938,COM16, 2000-00-00 00:26:02.080, -0.096, 0.057, 1.046, 7.385, 5.493, -53.467, 3.746, 3.323, -34.206, -9.633, 24.080, -38.773, 31.33,,,,,,,,,,,,,,,,
 19:05:58.940,COM16, 2000-00-00 00:26:02.090, -0.096, 0.099, 1.019, -2.014, -2.197, -52.612, 3.702, 3.334, -34.673, -9.573, 23.707, -38.773, 31.31,,,,,,,,,,,,,,,,
 19:05:58.944,COM16, 2000-00-00 00:26:02.100, 0.060, 0.099, 1.019, -2.014, -2.197, -52.612, 3.664, 3.351, -35.134, -9.533, 23.420, -38.787, 31.31,,,,,,,,,,,,,,,,
 19:05:58.947,COM13, 2000-00-00 00:27:20.115, -0.003, -0.125, 0.995, -5.737, 0.427, 87.036, 1.516, 4.697, -20.720, -10.133, 73.207, -71.067, 31.32,,,,,,,,,,,,,,,,
 19:05:58.952,COM13, 2000-00-00 00:27:20.135, -0.090, 0.111, 0.994, -8.850, 0.732, 86.426, 1.489, 4.708, -18.984, -10.053, 73.500, -71.547, 31.30,,,,,,,,,,,,,,,,
 19:05:58.963,COM14, 2000-00-06 17:25:59.738, -0.132, -0.013, 1.015, -2.563, 2.319, -50.232, -0.555, 2.269, 1.467, -24.360, 8.960, -34.447, 31.51,,,,,,,,,,,,,,,,
 19:05:58.968,COM14, 2000-00-06 17:25:59.758, 0.006, 0.090, 0.948, -2.380, 0.732, -49.377, -0.626, 2.351, 0.467, -24.453, 8.073, -34.433, 31.49,,,,,,,,,,,,,,,,
 19:05:58.981,COM16, 2000-00-00 00:26:02.110, 0.060, -0.028, 1.026, 3.174, 2.930, -51.331, 3.669, 3.406, -35.579, -9.480, 23.187, -38.867, 31.36,,,,,,,,,,,,,,,,
 19:05:58.982,COM13, 2000-00-00 00:27:20.155, 0.021, -0.050, 0.970, -2.686, 1.831, 91.553, 1.456, 4.730, -17.227, -10.167, 73.867, -71.907, 31.28,,,,,,,,,,,,,,,,
 19:05:58.986,COM16, 2000-00-00 00:26:02.120, -0.042, -0.028, 1.026, 3.174, 2.930, -51.331, 3.675, 3.461, -36.013, -9.460, 23.067, -38.940, 31.36,,,,,,,,,,,,,,,,
 19:05:58.989,COM13, 2000-00-00 00:27:20.175, -0.116, 0.038, 1.000, -11.292, 3.784, 86.121, 1.472, 4.774, -15.419, -9.567, 74.480, -72.247, 31.34,,,,,,,,,,,,,,,,
 19:05:58.992,COM16, 2000-00-00 00:26:02.130, -0.042, 0.114, 0.985, 8.667, 7.385, -50.232, 3.735, 3.560, -36.436, -9.433, 23.000, -39.073, 31.37,,,,,,,,,,,,,,,,
 19:05:58.995,COM16, 2000-00-00 00:26:02.140, 0.017, 0.114, 0.985, 8.667, 7.385, -50.232, 3.796, 3.658, -36.859, -10.027, 22.927, -39.220, 31.37,,,,,,,,,,,,,,,,
 19:05:58.997,COM14, 2000-00-06 17:25:59.778, -0.145, 0.005, 1.014, -3.601, 0.000, -48.035, -0.687, 2.406, -0.516, -25.040, 7.560, -34.580, 31.49,,,,,,,,,,,,,,,,
 19:05:58.999,COM16, 2000-00-00 00:26:02.150, 0.017, 0.017, 0.979, -4.272, -2.319, -48.950, 3.724, 3.653, -37.271, -9.867, 22.913, -39.247, 31.36,,,,,,,,,,,,,,,,
 19:05:59.004,COM14, 2000-00-06 17:25:59.798, -0.032, 0.039, 1.001, -3.723, 2.625, -45.715, -0.769, 2.444, -1.467, -25.400, 7.407, -34.653, 31.50,,,,,,,,,,,,,,,,
 19:05:59.017,COM13, 2000-00-00 00:27:20.195, -0.019, 0.011, 0.996, -3.418, 2.441, 92.285, 1.401, 4.845, -13.667, -10.013, 75.173, -72.627, 31.28,,,,,,,,,,,,,,,,
 19:05:59.041,COM16, 2000-00-00 00:26:02.160, 0.123, 0.017, 0.979, -4.272, -2.319, -48.950, 3.653, 3.647, -37.678, -9.753, 22.640, -39.233, 31.36,,,,,,,,,,,,,,,,
 19:05:59.043,COM16, 2000-00-00 00:26:02.170, 0.123, -0.028, 1.064, -3.357, -2.258, -47.852, 3.593, 3.636, -38.068, -9.980, 22.727, -39.273, 31.34,,,,,,,,,,,,,,,,
 19:05:59.044,COM13, 2000-00-00 00:27:20.215, -0.049, -0.030, 1.007, -9.094, 1.038, 88.440, 1.428, 4.889, -11.838, -9.260, 76.207, -73.180, 31.30,,,,,,,,,,,,,,,,
 19:05:59.049,COM16, 2000-00-00 00:26:02.180, 0.022, -0.028, 1.064, -3.357, -2.258, -47.852, 3.527, 3.625, -38.458, -10.427, 22.767, -39.287, 31.34,,,,,,,,,,,,,,,,
 19:05:59.050,COM13, 2000-00-00 00:27:20.235, -0.088, 0.045, 1.021, -6.226, 0.549, 90.698, 1.373, 4.911, -10.058, -9.087, 77.227, -73.447, 31.30,,,,,,,,,,,,,,,,
 19:05:59.054,COM16, 2000-00-00 00:26:02.190, 0.022, -0.055, 0.923, 6.348, 7.385, -44.861, 3.560, 3.697, -38.820, -10.807, 22.280, -39.307, 31.35,,,,,,,,,,,,,,,,
 19:05:59.058,COM14, 2000-00-06 17:25:59.818, 0.007, 0.042, 1.055, -2.197, 1.038, -44.312, -0.846, 2.521, -2.379, -25.647, 7.340, -34.640, 31.49,,,,,,,,,,,,,,,,
 19:05:59.059,COM16, 2000-00-00 00:26:02.200, 0.055, -0.055, 0.923, 6.348, 7.385, -44.861, 3.587, 3.774, -39.177, -10.507, 21.933, -39.367, 31.35,,,,,,,,,,,,,,,,
 19:05:59.064,COM14, 2000-00-06 17:25:59.838, 0.025, 0.000, 0.920, -2.197, 1.343, -40.771, -0.895, 2.560, -3.252, -25.747, 7.413, -34.573, 31.52,,,,,,,,,,,,,,,,
 19:05:59.071,COM14, 2000-00-06 17:25:59.858, -0.039, 0.053, 0.995, -2.625, 2.930, -38.452, -0.945, 2.604, -4.059, -25.867, 6.913, -34.620, 31.52,,,,,,,,,,,,,,,,
 19:05:59.077,COM13, 2000-00-00 00:27:20.255, 0.028, -0.110, 0.953, -4.272, 1.282, 88.928, 1.379, 4.927, -8.251, -8.860, 78.047, -73.927, 31.27,,,,,,,,,,,,,,,,
 19:05:59.092,COM16, 2000-00-00 00:26:02.210, 0.055, 0.011, 1.043, -4.822, -3.723, -43.884, 3.505, 3.735, -39.529, -10.560, 21.620, -39.387, 31.35,,,,,,,,,,,,,,,,
 19:05:59.098,COM16, 2000-00-00 00:26:02.220, 0.225, 0.011, 1.043, -4.822, -3.723, -43.884, 3.417, 3.697, -39.880, -10.853, 21.367, -39.380, 31.35,,,,,,,,,,,,,,,,
 19:05:59.099,COM14, 2000-00-06 17:25:59.878, -0.050, 0.027, 1.091, -3.540, 0.488, -35.217, -1.005, 2.648, -4.818, -25.813, 6.113, -34.633, 31.48,,,,,,,,,,,,,,,,
 19:05:59.103,COM16, 2000-00-00 00:26:02.230, 0.225, -0.150, 1.039, -2.991, -1.404, -39.978, 3.351, 3.669, -40.188, -11.087, 21.260, -39.413, 31.36,,,,,,,,,,,,,,,,
 19:05:59.105,COM14, 2000-00-06 17:25:59.898, 0.074, 0.030, 1.004, -2.441, 0.000, -33.325, -1.071, 2.648, -5.515, -25.847, 5.667, -34.667, 31.51,,,,,,,,,,,,,,,,
 19:05:59.106,COM16, 2000-00-00 00:26:02.240, 0.125, -0.150, 1.039, -2.991, -1.404, -39.978, 3.285, 3.636, -40.490, -11.293, 21.193, -39.427, 31.36,,,,,,,,,,,,,,,,
 19:05:59.112,COM16, 2000-00-00 00:26:02.250, 0.125, -0.076, 0.993, 10.681, 12.085, -37.231, 3.351, 3.730, -40.759, -11.473, 21.113, -39.393, 31.32,,,,,,,,,,,,,,,,
 19:05:59.123,COM16, 2000-00-00 00:26:02.260, 0.037, -0.076, 0.993, 10.681, 12.085, -37.231, 3.417, 3.823, -41.028, -11.647, 21.140, -39.353, 31.32,,,,,,,,,,,,,,,,
 19:05:59.127,COM16, 2000-00-00 00:26:02.270, 0.037, 0.030, 1.000, -3.235, -2.136, -35.217, 3.340, 3.774, -41.281, -11.760, 21.187, -39.307, 31.34,,,,,,,,,,,,,,,,
 19:05:59.132,COM16, 2000-00-00 00:26:02.280, 0.157, 0.030, 1.000, -3.235, -2.136, -35.217, 3.268, 3.724, -41.534, -11.820, 21.153, -39.260, 31.34,,,,,,,,,,,,,,,,
 19:05:59.133,COM13, 2000-00-00 00:27:20.275, -0.151, 0.114, 1.005, -7.935, 3.845, 89.172, 1.373, 4.988, -6.465, -8.607, 78.320, -74.293, 31.30,,,,,,,,,,,,,,,,
 19:05:59.134,COM14, 2000-00-06 17:25:59.918, -0.078, -0.027, 0.958, -2.197, 2.380, -30.212, -1.115, 2.648, -6.169, -25.887, 5.453, -34.580, 31.50,,,,,,,,,,,,,,,,
 19:05:59.137,COM16, 2000-00-00 00:26:02.290, 0.157, -0.197, 0.996, -8.301, -5.859, -32.288, 3.148, 3.631, -41.759, -11.867, 21.113, -39.213, 31.37,,,,,,,,,,,,,,,,
 19:05:59.140,COM14, 2000-00-06 17:25:59.938, 0.049, 0.068, 1.056, -1.831, 1.282, -27.588, -1.154, 2.670, -6.762, -25.867, 5.360, -34.420, 31.50,,,,,,,,,,,,,,,,
 19:05:59.140,COM13, 2000-00-00 00:27:20.295, 0.022, -0.067, 0.995, -4.211, 2.014, 91.003, 1.373, 5.043, -4.664, -8.567, 78.733, -74.707, 31.30,,,,,,,,,,,,,,,,
 19:05:59.143,COM16, 2000-00-00 00:26:02.300, 0.137, -0.197, 0.996, -8.301, -5.859, -32.288, 3.021, 3.538, -41.984, -11.927, 21.173, -39.133, 31.37,,,,,,,,,,,,,,,,
 19:05:59.146,COM16, 2000-00-00 00:26:02.310, 0.137, -0.066, 1.051, 6.409, 8.362, -29.968, 3.043, 3.576, -42.177, -12.013, 20.633, -39.113, 31.34,,,,,,,,,,,,,,,,
 19:05:59.147,COM13, 2000-00-00 00:27:20.315, -0.104, 0.009, 1.020, -7.935, -0.061, 87.646, 1.373, 5.070, -2.878, -8.347, 79.593, -75.373, 31.28,,,,,,,,,,,,,,,,
 19:05:59.152,COM13, 2000-00-00 00:27:20.335, -0.017, 0.041, 0.982, -5.127, 1.160, 91.370, 1.362, 5.087, -1.082, -8.440, 80.313, -75.933, 31.30,,,,,,,,,,,,,,,,
 19:05:59.170,COM14, 2000-00-06 17:25:59.958, -0.004, 0.008, 0.939, -1.831, 0.244, -25.085, -1.181, 2.670, -7.300, -25.813, 5.353, -34.420, 31.49,,,,,,,,,,,,,,,,
 19:05:59.179,COM13, 2000-00-00 00:27:20.355, -0.068, -0.020, 0.995, -8.850, 0.977, 88.684, 1.346, 5.114, 0.714, -8.153, 81.127, -76.460, 31.28,,,,,,,,,,,,,,,,
 19:05:59.183,COM16, 2000-00-00 00:26:02.320, 0.092, -0.066, 1.051, 6.409, 8.362, -29.968, 3.065, 3.620, -42.369, -12.073, 20.200, -39.140, 31.34,,,,,,,,,,,,,,,,
 19:05:59.189,COM16, 2000-00-00 00:26:02.330, 0.092, -0.074, 0.947, 7.385, 5.310, -26.184, 3.093, 3.631, -42.534, -12.080, 19.873, -39.133, 31.34,,,,,,,,,,,,,,,,
 19:05:59.191,COM16, 2000-00-00 00:26:02.340, 0.150, -0.074, 0.947, 7.385, 5.310, -26.184, 3.126, 3.636, -42.693, -12.080, 19.627, -39.133, 31.34,,,,,,,,,,,,,,,,
 19:05:59.197,COM16, 2000-00-00 00:26:02.350, 0.150, -0.112, 1.051, -11.658, -7.202, -25.085, 2.966, 3.516, -42.847, -12.053, 19.373, -39.113, 31.31,,,,,,,,,,,,,,,,
 19:05:59.202,COM14, 2000-00-06 17:25:59.978, 0.043, 0.000, 0.999, -2.319, 0.793, -21.729, -1.214, 2.653, -7.789, -25.813, 5.353, -34.540, 31.53,,,,,,,,,,,,,,,,
 19:05:59.202,COM16, 2000-00-00 00:26:02.360, 0.136, -0.112, 1.051, -11.658, -7.202, -25.085, 2.802, 3.395, -43.000, -11.993, 19.460, -39.040, 31.31,,,,,,,,,,,,,,,,
 19:05:59.208,COM14, 2000-00-06 17:25:59.998, -0.002, 0.003, 1.076, -2.319, 1.587, -20.325, -1.247, 2.642, -8.218, -25.827, 5.440, -34.553, 31.48,,,,,,,,,,,,,,,,
 19:05:59.229,COM14, 2000-00-06 17:26:00.018, -0.010, 0.022, 0.957, -1.648, 0.488, -16.052, -1.280, 2.637, -8.608, -25.820, 5.467, -34.627, 31.52,,,,,,,,,,,,,,,,
 19:05:59.235,COM13, 2000-00-00 00:27:20.375, -0.075, 0.000, 0.999, -4.822, 2.808, 91.858, 1.335, 5.158, 2.521, -8.267, 82.013, -76.960, 31.30,,,,,,,,,,,,,,,,
 19:05:59.237,COM16, 2000-00-00 00:26:02.370, 0.136, -0.132, 0.999, 0.854, 2.258, -20.935, 2.769, 3.367, -43.105, -11.913, 19.273, -38.927, 31.34,,,,,,,,,,,,,,,,
 19:05:59.240,COM13, 2000-00-00 00:27:20.395, -0.006, -0.013, 0.985, -7.202, 1.282, 89.172, 1.340, 5.202, 4.334, -8.013, 82.273, -77.687, 31.29,,,,,,,,,,,,,,,,
 19:05:59.243,COM16, 2000-00-00 00:26:02.380, 0.158, -0.132, 0.999, 0.854, 2.258, -20.935, 2.736, 3.334, -43.204, -11.853, 19.147, -38.833, 31.34,,,,,,,,,,,,,,,,
 19:05:59.245,COM13, 2000-00-00 00:27:20.415, -0.139, 0.039, 1.019, -6.165, 1.099, 91.492, 1.329, 5.235, 6.141, -7.900, 83.073, -78.387, 31.30,,,,,,,,,,,,,,,,
 19:05:59.248,COM13, 2000-00-00 00:27:20.435, 0.029, -0.017, 0.967, -5.249, 1.160, 92.163, 1.346, 5.262, 7.982, -8.240, 83.680, -79.000, 31.30,,,,,,,,,,,,,,,,
 19:05:59.248,COM16, 2000-00-00 00:26:02.390, 0.158, -0.168, 1.010, 8.972, 8.972, -19.287, 2.780, 3.367, -43.292, -11.853, 19.040, -38.800, 31.35,,,,,,,,,,,,,,,,
 19:05:59.254,COM16, 2000-00-00 00:26:02.400, 0.084, -0.168, 1.010, 8.972, 8.972, -19.287, 2.823, 3.400, -43.374, -11.867, 18.980, -38.740, 31.35,,,,,,,,,,,,,,,,
 19:05:59.257,COM16, 2000-00-00 00:26:02.410, 0.084, -0.040, 0.952, -4.150, -1.709, -15.564, 2.736, 3.323, -43.423, -11.847, 18.960, -38.547, 31.37,,,,,,,,,,,,,,,,
 19:05:59.259,COM14, 2000-00-06 17:26:00.038, 0.079, -0.005, 1.021, -1.282, 0.183, -13.977, -1.302, 2.609, -8.921, -25.827, 5.533, -34.620, 31.49,,,,,,,,,,,,,,,,
 19:05:59.265,COM14, 2000-00-06 17:26:00.058, 0.011, -0.016, 0.945, -1.587, 0.244, -10.925, -1.313, 2.582, -9.185, -25.793, 5.653, -34.453, 31.49,,,,,,,,,,,,,,,,
 19:05:59.275,COM13, 2000-00-00 00:27:20.455, -0.114, 0.000, 1.018, -7.324, 1.709, 91.309, 1.351, 5.301, 9.822, -7.900, 84.180, -79.713, 31.30,,,,,,,,,,,,,,,,
 19:05:59.294,COM14, 2000-00-06 17:26:00.078, 0.060, 0.001, 1.064, -1.404, 1.526, -9.155, -1.329, 2.554, -9.393, -25.767, 5.780, -34.333, 31.50,,,,,,,,,,,,,,,,
 19:05:59.294,COM16, 2000-00-00 00:26:02.420, 0.167, -0.040, 0.952, -4.150, -1.709, -15.564, 2.653, 3.252, -43.478, -11.793, 18.900, -38.360, 31.37,,,,,,,,,,,,,,,,
 19:05:59.299,COM16, 2000-00-00 00:26:02.430, 0.167, -0.233, 1.060, -8.057, -5.615, -13.000, 2.527, 3.131, -43.506, -11.740, 18.813, -38.253, 31.35,,,,,,,,,,,,,,,,
 19:05:59.299,COM14, 2000-00-06 17:26:00.098, 0.036, -0.018, 0.975, -1.160, 0.000, -5.554, -1.346, 2.532, -9.564, -25.687, 5.720, -34.307, 31.51,,,,,,,,,,,,,,,,
 19:05:59.302,COM16, 2000-00-00 00:26:02.440, 0.120, -0.233, 1.060, -8.057, -5.615, -13.000, 2.401, 3.016, -43.533, -11.687, 18.733, -38.167, 31.35,,,,,,,,,,,,,,,,
 19:05:59.307,COM13, 2000-00-00 00:27:20.475, -0.044, 0.010, 0.987, -6.653, 1.343, 91.125, 1.340, 5.339, 11.646, -7.753, 85.047, -80.460, 31.30,,,,,,,,,,,,,,,,
 19:05:59.308,COM16, 2000-00-00 00:26:02.450, 0.120, -0.068, 0.987, 4.700, 5.920, -10.864, 2.406, 3.010, -43.533, -11.640, 18.767, -38.107, 31.33,,,,,,,,,,,,,,,,
 19:05:59.313,COM16, 2000-00-00 00:26:02.460, 0.184, -0.068, 0.987, 4.700, 5.920, -10.864, 2.406, 3.010, -43.533, -11.627, 18.813, -38.087, 31.33,,,,,,,,,,,,,,,,
 19:05:59.314,COM13, 2000-00-00 00:27:20.495, -0.079, -0.010, 0.997, -6.348, 0.916, 91.614, 1.340, 5.367, 13.475, -7.713, 85.420, -81.100, 31.26,,,,,,,,,,,,,,,,
 19:05:59.329,COM14, 2000-00-06 17:26:00.118, 0.123, -0.022, 0.998, -0.305, -0.916, -2.686, -1.351, 2.483, -9.662, -25.607, 5.660, -34.333, 31.50,,,,,,,,,,,,,,,,
 19:05:59.330,COM13, 2000-00-00 00:27:20.515, -0.017, -0.008, 0.993, -4.822, 1.770, 92.773, 1.362, 5.405, 15.320, -7.973, 86.573, -81.980, 31.30,,,,,,,,,,,,,,,,
 19:05:59.350,COM16, 2000-00-00 00:26:02.470, 0.184, -0.200, 0.988, 7.080, 6.592, -7.690, 2.433, 3.010, -43.495, -11.607, 18.820, -38.020, 31.33,,,,,,,,,,,,,,,,
 19:05:59.353,COM16, 2000-00-00 00:26:02.480, 0.113, -0.200, 0.988, 7.080, 6.592, -7.690, 2.461, 3.005, -43.462, -11.547, 18.813, -37.880, 31.33,,,,,,,,,,,,,,,,
 19:05:59.359,COM16, 2000-00-00 00:26:02.490, 0.113, -0.124, 0.998, -8.728, -6.592, -5.127, 2.329, 2.873, -43.401, -11.460, 18.820, -37.707, 31.35,,,,,,,,,,,,,,,,
 19:05:59.360,COM14, 2000-00-06 17:26:00.138, 0.047, -0.024, 0.995, -1.099, 0.671, -0.732, -1.346, 2.428, -9.706, -25.553, 5.620, -34.247, 31.52,,,,,,,,,,,,,,,,
 19:05:59.363,COM16, 2000-00-00 00:26:02.500, 0.205, -0.124, 0.998, -8.728, -6.592, -5.127, 2.197, 2.736, -43.347, -11.367, 18.747, -37.560, 31.35,,,,,,,,,,,,,,,,
 19:05:59.366,COM16, 2000-00-00 00:26:02.510, 0.205, -0.193, 0.996, -4.578, -2.625, -1.892, 2.109, 2.642, -43.253, -11.613, 18.960, -37.440, 31.33,,,,,,,,,,,,,,,,
 19:05:59.366,COM14, 2000-00-06 17:26:00.158, 0.086, -0.028, 1.010, -0.366, 0.305, 1.465, -1.351, 2.384, -9.712, -25.553, 5.600, -34.213, 31.50,,,,,,,,,,,,,,,,
 19:05:59.371,COM13, 2000-00-00 00:27:20.535, -0.089, -0.013, 1.003, -6.836, 1.038, 89.539, 1.379, 5.438, 17.150, -8.253, 87.420, -82.773, 31.30,,,,,,,,,,,,,,,,
 19:05:59.373,COM16, 2000-00-00 00:26:02.520, 0.160, -0.193, 0.996, -4.578, -2.625, -1.892, 2.016, 2.543, -43.165, -11.793, 18.853, -37.327, 31.33,,,,,,,,,,,,,,,,
 19:05:59.377,COM13, 2000-00-00 00:27:20.555, -0.070, -0.010, 0.997, -6.592, 1.099, 89.294, 1.368, 5.466, 18.940, -8.047, 88.467, -83.793, 31.29,,,,,,,,,,,,,,,,
 19:05:59.404,COM13, 2000-00-00 00:27:20.575, -0.041, -0.023, 0.992, -5.188, 0.854, 89.111, 1.379, 5.488, 20.726, -7.340, 88.860, -84.960, 31.27,,,,,,,,,,,,,,,,
 19:05:59.409,COM16, 2000-00-00 00:26:02.530, 0.160, -0.124, 1.005, 5.371, 6.042, -0.305, 2.027, 2.532, -43.055, -11.660, 18.840, -37.240, 31.33,,,,,,,,,,,,,,,,
 19:05:59.410,COM13, 2000-00-00 00:27:20.595, -0.049, -0.005, 0.996, -4.944, 1.465, 88.989, 1.401, 5.521, 22.511, -7.813, 89.133, -85.793, 31.30,,,,,,,,,,,,,,,,
 19:05:59.415,COM16, 2000-00-00 00:26:02.540, 0.131, -0.124, 1.005, 5.371, 6.042, -0.305, 2.038, 2.516, -42.940, -11.573, 18.853, -37.173, 31.33,,,,,,,,,,,,,,,,
 19:05:59.418,COM16, 2000-00-00 00:26:02.550, 0.131, -0.168, 0.995, 1.770, 1.038, 2.319, 2.010, 2.455, -42.803, -11.460, 18.853, -37.047, 31.35,,,,,,,,,,,,,,,,
 19:05:59.422,COM16, 2000-00-00 00:26:02.560, 0.196, -0.168, 0.995, 1.770, 1.038, 2.319, 1.983, 2.390, -42.665, -11.360, 18.920, -36.840, 31.35,,,,,,,,,,,,,,,,
 19:05:59.423,COM14, 2000-00-06 17:26:00.178, 0.076, -0.038, 1.006, -0.122, -0.305, 4.028, -1.346, 2.329, -9.668, -25.593, 5.513, -34.167, 31.48,,,,,,,,,,,,,,,,
 19:05:59.428,COM16, 2000-00-00 00:26:02.570, 0.196, -0.177, 0.999, -5.493, -3.174, 4.517, 1.884, 2.285, -42.506, -11.293, 18.913, -36.720, 31.34,,,,,,,,,,,,,,,,
 19:05:59.429,COM14, 2000-00-06 17:26:00.198, 0.081, -0.029, 0.999, -0.305, -0.488, 6.897, -1.340, 2.263, -9.575, -25.580, 5.433, -34.120, 31.50,,,,,,,,,,,,,,,,
 19:05:59.435,COM14, 2000-00-06 17:26:00.218, 0.076, -0.042, 0.991, 0.244, -0.366, 7.996, -1.335, 2.197, -9.432, -25.527, 5.327, -34.040, 31.49,,,,,,,,,,,,,,,,
 19:05:59.439,COM13, 2000-00-00 00:27:20.615, -0.071, -0.008, 0.997, -6.226, 0.549, 86.670, 1.412, 5.543, 24.269, -7.927, 90.140, -86.860, 31.28,,,,,,,,,,,,,,,,
 19:05:59.446,COM13, 2000-00-00 00:27:20.635, -0.059, -0.026, 0.991, -5.371, 1.526, 86.304, 1.423, 5.565, 26.005, -7.747, 90.633, -88.067, 31.29,,,,,,,,,,,,,,,,
 19:05:59.453,COM16, 2000-00-00 00:26:02.580, 0.126, -0.177, 0.999, -5.493, -3.174, 4.517, 1.785, 2.181, -42.347, -11.547, 18.820, -36.653, 31.34,,,,,,,,,,,,,,,,
 19:05:59.458,COM16, 2000-00-00 00:26:02.590, 0.126, -0.120, 1.020, -0.610, -0.488, 7.385, 1.736, 2.098, -42.177, -12.020, 18.720, -36.540, 31.35,,,,,,,,,,,,,,,,
 19:05:59.460,COM14, 2000-00-06 17:26:00.238, 0.083, -0.038, 0.995, -0.305, -0.061, 10.010, -1.324, 2.126, -9.261, -25.533, 5.193, -33.940, 31.49,,,,,,,,,,,,,,,,
 19:05:59.463,COM16, 2000-00-00 00:26:02.600, 0.143, -0.120, 1.020, -0.610, -0.488, 7.385, 1.686, 2.021, -42.012, -12.427, 18.667, -36.453, 31.35,,,,,,,,,,,,,,,,
 19:05:59.465,COM14, 2000-00-06 17:26:00.258, 0.048, -0.042, 0.993, 0.183, -0.427, 11.963, -1.324, 2.060, -9.058, -25.487, 5.147, -33.867, 31.47,,,,,,,,,,,,,,,,
 19:05:59.466,COM16, 2000-00-00 00:26:02.610, 0.143, -0.146, 0.995, 0.244, 0.793, 8.301, 1.642, 1.961, -41.847, -12.767, 18.653, -36.393, 31.32,,,,,,,,,,,,,,,,
 19:05:59.472,COM16, 2000-00-00 00:26:02.620, 0.142, -0.146, 0.995, 0.244, 0.793, 8.301, 1.599, 1.901, -41.688, -13.020, 18.580, -36.413, 31.32,,,,,,,,,,,,,,,,
 19:05:59.477,COM13, 2000-00-00 00:27:20.655, -0.065, -0.007, 1.010, -5.249, 0.977, 85.388, 1.434, 5.598, 27.724, -7.753, 91.520, -89.273, 31.30,,,,,,,,,,,,,,,,
 19:05:59.495,COM14, 2000-00-06 17:26:00.278, -0.003, -0.039, 1.055, 0.427, -0.671, 13.855, -1.313, 1.989, -8.806, -25.373, 5.053, -33.733, 31.48,,,,,,,,,,,,,,,,
 19:05:59.501,COM14, 2000-00-06 17:26:00.298, 0.031, -0.035, 0.960, 0.977, -0.549, 15.930, -1.296, 1.917, -8.520, -25.287, 4.967, -33.587, 31.49,,,,,,,,,,,,,,,,
 19:05:59.508,COM16, 2000-00-00 00:26:02.630, 0.142, -0.149, 1.008, -0.305, 0.061, 10.498, 1.555, 1.829, -41.517, -13.200, 18.793, -36.407, 31.35,,,,,,,,,,,,,,,,
 19:05:59.508,COM13, 2000-00-00 00:27:20.675, -0.038, 0.012, 0.989, -1.221, 0.854, 86.487, 1.489, 5.614, 29.443, -8.720, 92.353, -90.073, 31.26,,,,,,,,,,,,,,,,
 19:05:59.514,COM16, 2000-00-00 00:26:02.640, 0.153, -0.149, 1.008, -0.305, 0.061, 10.498, 1.505, 1.763, -41.347, -13.373, 18.707, -36.260, 31.35,,,,,,,,,,,,,,,,
 19:05:59.514,COM13, 2000-00-00 00:27:20.695, -0.076, 0.013, 1.010, -7.751, -0.305, 85.510, 1.527, 5.620, 31.168, -8.240, 93.167, -91.547, 31.30,,,,,,,,,,,,,,,,
 19:05:59.518,COM16, 2000-00-00 00:26:02.650, 0.153, -0.145, 1.003, -2.197, -0.610, 12.329, 1.434, 1.692, -41.160, -13.520, 18.953, -36.080, 31.32,,,,,,,,,,,,,,,,
 19:05:59.523,COM16, 2000-00-00 00:26:02.660, 0.084, -0.145, 1.003, -2.197, -0.610, 12.329, 1.368, 1.615, -40.974, -13.593, 19.327, -36.000, 31.32,,,,,,,,,,,,,,,,
 19:05:59.528,COM16, 2000-00-00 00:26:02.670, 0.084, -0.135, 0.989, 0.183, -0.183, 14.343, 1.329, 1.549, -40.770, -13.613, 19.507, -36.067, 31.34,,,,,,,,,,,,,,,,
 19:05:59.532,COM16, 2000-00-00 00:26:02.680, 0.067, -0.135, 0.989, 0.183, -0.183, 14.343, 1.285, 1.483, -40.567, -13.680, 19.853, -36.013, 31.34,,,,,,,,,,,,,,,,
 19:05:59.538,COM13, 2000-00-00 00:27:20.715, -0.044, 0.023, 0.974, -4.333, 1.282, 87.097, 1.533, 5.630, 32.899, -8.567, 93.627, -92.840, 31.28,,,,,,,,,,,,,,,,
 19:05:59.555,COM14, 2000-00-06 17:26:00.318, 0.037, -0.043, 0.992, 0.793, -0.854, 17.212, -1.274, 1.851, -8.196, -25.287, 5.940, -33.480, 31.49,,,,,,,,,,,,,,,,
 19:05:59.560,COM14, 2000-00-06 17:26:00.338, -0.008, -0.017, 0.990, 0.122, -0.610, 19.104, -1.258, 1.785, -7.844, -25.220, 6.513, -33.460, 31.49,,,,,,,,,,,,,,,,
 19:05:59.567,COM14, 2000-00-06 17:26:00.358, 0.051, -0.056, 1.012, 0.061, -0.061, 20.569, -1.252, 1.736, -7.460, -25.187, 6.840, -33.507, 31.45,,,,,,,,,,,,,,,,
 19:05:59.568,COM13, 2000-00-00 00:27:20.735, -0.045, -0.002, 0.992, -5.615, 1.648, 86.975, 1.566, 5.658, 34.640, -8.487, 94.213, -94.253, 31.27,,,,,,,,,,,,,,,,
 19:05:59.568,COM16, 2000-00-00 00:26:02.690, 0.067, -0.086, 0.998, -6.592, -5.676, 15.930, 1.176, 1.368, -40.353, -13.767, 19.840, -35.920, 31.39,,,,,,,,,,,,,,,,
 19:05:59.573,COM16, 2000-00-00 00:26:02.700, 0.118, -0.086, 0.998, -6.592, -5.676, 15.930, 1.066, 1.252, -40.144, -13.827, 19.973, -35.907, 31.39,,,,,,,,,,,,,,,,
 19:05:59.574,COM13, 2000-00-00 00:27:20.755, -0.085, 0.035, 0.993, -5.737, 1.770, 88.196, 1.582, 5.691, 36.398, -8.507, 94.440, -95.520, 31.26,,,,,,,,,,,,,,,,
 19:05:59.578,COM16, 2000-00-00 00:26:02.710, 0.118, -0.140, 1.038, -2.625, -2.930, 17.700, 1.000, 1.170, -39.919, -13.853, 20.107, -35.907, 31.33,,,,,,,,,,,,,,,,
 19:05:59.582,COM16, 2000-00-00 00:26:02.720, 0.083, -0.140, 1.038, -2.625, -2.930, 17.700, 0.934, 1.088, -39.694, -13.867, 20.213, -35.913, 31.33,,,,,,,,,,,,,,,,
 19:05:59.587,COM16, 2000-00-00 00:26:02.730, 0.083, -0.125, 1.017, 2.563, 3.784, 19.287, 0.917, 1.071, -39.452, -13.887, 20.313, -35.907, 31.33,,,,,,,,,,,,,,,,
 19:05:59.596,COM14, 2000-00-06 17:26:00.378, 0.000, -0.045, 1.005, 0.549, -1.465, 22.400, -1.241, 1.692, -7.037, -25.107, 6.940, -33.527, 31.51,,,,,,,,,,,,,,,,
 19:05:59.599,COM16, 2000-00-00 00:26:02.740, 0.051, -0.125, 1.017, 2.563, 3.784, 19.287, 0.901, 1.060, -39.216, -13.933, 20.387, -35.873, 31.33,,,,,,,,,,,,,,,,
 19:05:59.601,COM14, 2000-00-06 17:26:00.398, 0.110, -0.058, 0.954, 0.366, -0.610, 24.597, -1.230, 1.626, -6.581, -25.007, 6.947, -33.360, 31.49,,,,,,,,,,,,,,,,
 19:05:59.601,COM16, 2000-00-00 00:26:02.750, 0.051, -0.089, 0.963, 3.113, 1.892, 20.996, 0.895, 1.033, -38.969, -13.993, 20.433, -35.860, 31.32,,,,,,,,,,,,,,,,
 19:05:59.602,COM13, 2000-00-00 00:27:20.775, -0.070, 0.003, 1.003, -6.348, 1.526, 88.257, 1.599, 5.718, 38.167, -8.500, 95.307, -97.013, 31.29,,,,,,,,,,,,,,,,
 19:05:59.607,COM16, 2000-00-00 00:26:02.760, 0.126, -0.089, 0.963, 3.113, 1.892, 20.996, 0.884, 1.000, -38.716, -13.740, 20.453, -35.887, 31.32,,,,,,,,,,,,,,,,
 19:05:59.609,COM13, 2000-00-00 00:27:20.795, -0.030, 0.034, 0.986, -6.348, 2.075, 90.088, 1.615, 5.751, 39.952, -8.780, 95.913, -98.600, 31.28,,,,,,,,,,,,,,,,
 19:05:59.612,COM16, 2000-00-00 00:26:02.770, 0.126, -0.155, 0.985, -8.484, -5.676, 22.461, 0.764, 0.901, -38.452, -13.807, 20.373, -35.893, 31.32,,,,,,,,,,,,,,,,
