Time,Device name,Chip Time(),Acceleration X(g),Acceleration Y(g),Acceleration Z(g),Angular velocity X(°/s),Angular velocity Y(°/s),Angular velocity Z(°/s),Angle X(°),Angle Y(°),Angle Z(°),Magnetic field X(ʯt),Magnetic field Y(ʯt),Magnetic field Z(ʯt),Temperature(℃),Pressure(Pa),Height(m),Longitude(),Latitude(),GPS ground speed(km),Angle of course(°),GPS height(m),Number of satellites(),Position location(),Horizontal position(),Vertical position(),Quaternions 0(),Quaternions 1(),Quaternions 2(),Quaternions 3()
 22:01:55.544,COM13,,-0.031,0.021,0.982,-4.822,-0.244,87.463,-0.731,0.143,-89.187,-3639,3755,-3998,33.12,,,,,,,,,,,,,,,
 22:01:55.551,COM13,,-0.055,0,0.966,-5.432,2.075,86.853,-0.747,0.137,-87.44,-3689,3845,-4035,33.16,,,,,,,,,,,,,,,
 22:01:55.581,COM13,,-0.059,0.011,1.003,-5.737,2.258,88.074,-0.775,0.17,-85.699,-3721,3998,-4082,33.14,,,,,,,,,,,,,,,
 22:01:55.585,COM13,,-0.052,-0.01,1,-5.798,1.343,88.867,-0.797,0.214,-83.941,-3669,4095,-4124,33.15,,,,,,,,,,,,,,,
 22:01:55.614,COM13,,-0.044,0.01,0.997,-6.348,1.648,88.196,-0.829,0.253,-82.161,-3562,4141,-4174,33.14,,,,,,,,,,,,,,,
 22:01:55.646,COM13,,-0.057,0.016,0.979,-3.906,1.587,91.248,-0.824,0.291,-80.392,-3526,4296,-4243,33.16,,,,,,,,,,,,,,,
 22:01:55.649,COM13,,-0.09,-0.007,1.042,-6.653,0.977,89.844,-0.846,0.324,-78.58,-3492,4379,-4282,33.16,,,,,,,,,,,,,,,
 22:01:55.674,COM13,,-0.038,0.042,0.971,-5.859,0.183,91.37,-0.868,0.357,-76.772,-3427,4560,-4339,33.16,,,,,,,,,,,,,,,
 22:01:55.705,COM13,,-0.051,-0.001,0.988,-7.202,1.221,92.651,-0.901,0.374,-74.954,-3472,4632,-4413,33.14,,,,,,,,,,,,,,,
 22:01:55.707,COM13,,-0.074,0.025,0.995,-7.385,1.282,93.506,-0.939,0.401,-73.103,-3450,4659,-4457,33.13,,,,,,,,,,,,,,,
 22:01:55.735,COM13,,-0.062,-0.006,0.988,-7.813,1.526,93.506,-0.983,0.439,-71.235,-3458,4817,-4499,33.17,,,,,,,,,,,,,,,
 22:01:55.742,COM13,,-0.052,-0.035,1.005,-5.432,2.319,95.581,-0.989,0.478,-69.362,-3445,4878,-4579,33.12,,,,,,,,,,,,,,,
 22:01:55.775,COM13,,-0.087,0.021,0.976,-6.47,2.686,94.055,-1.005,0.538,-67.456,-3462,4994,-4645,33.17,,,,,,,,,,,,,,,
 22:01:55.831,COM13,,-0.026,-0.02,0.976,-7.385,3.967,93.933,-1.044,0.604,-65.566,-3452,5094,-4703,33.13,,,,,,,,,,,,,,,
 22:01:55.837,COM13,,-0.096,0,1.034,-7.69,2.991,94.482,-1.082,0.698,-63.682,-3466,5191,-4776,33.14,,,,,,,,,,,,,,,
 22:01:55.841,COM13,,-0.124,-0.048,1.034,-5.554,-0.183,93.506,-1.082,0.769,-61.793,-3360,5332,-4843,33.13,,,,,,,,,,,,,,,
 22:01:55.843,COM13,,-0.008,0.046,0.991,-5.249,-1.404,95.947,-1.071,0.786,-59.919,-3271,5402,-4899,33.15,,,,,,,,,,,,,,,
 22:01:55.875,COM13,,-0.075,-0.015,0.949,-7.629,-0.183,94.971,-1.11,0.78,-57.997,-3255,5581,-4966,33.14,,,,,,,,,,,,,,,
 22:01:55.910,COM13,,-0.067,-0.03,0.958,-6.104,3.723,93.872,-1.115,0.791,-56.091,-3242,5651,-5061,33.12,,,,,,,,,,,,,,,
 22:01:55.914,COM13,,-0.065,0.013,0.999,-5.859,5.493,96.741,-1.11,0.884,-54.212,-3308,5687,-5104,33.18,,,,,,,,,,,,,,,
 22:01:55.965,COM13,,-0.092,0.015,1.029,-6.836,3.906,96.191,-1.121,1.016,-52.273,-3281,5849,-5186,33.14,,,,,,,,,,,,,,,
 22:01:55.973,COM13,,-0.067,-0.058,1.025,-7.446,0.488,94.604,-1.143,1.11,-50.345,-3296,5916,-5279,33.14,,,,,,,,,,,,,,,
 22:01:55.975,COM13,,-0.125,0.015,0.976,-7.324,-0.366,94.91,-1.165,1.137,-48.45,-3204,6078,-5371,33.13,,,,,,,,,,,,,,,
 22:01:56.005,COM13,,-0.067,-0.018,1.007,-4.761,0.122,96.619,-1.132,1.154,-46.549,-3081,6146,-5471,33.13,,,,,,,,,,,,,,,
 22:01:56.008,COM13,,-0.029,-0.032,0.989,-6.042,0,94.91,-1.132,1.187,-44.61,-3119,6232,-5567,33.13,,,,,,,,,,,,,,,
 22:01:56.042,COM13,,-0.099,-0.029,0.955,-4.7,2.747,93.811,-1.104,1.203,-42.709,-3089,6360,-5687,33.17,,,,,,,,,,,,,,,
 22:01:56.045,COM13,,-0.083,0.025,0.98,-5.31,4.883,94.727,-1.082,1.28,-40.825,-3113,6427,-5767,33.17,,,,,,,,,,,,,,,
 22:01:56.075,COM13,,-0.059,-0.032,1.053,-6.531,2.625,92.773,-1.082,1.395,-38.93,-3066,6559,-5873,33.13,,,,,,,,,,,,,,,
 22:01:56.108,COM13,,-0.119,-0.014,1.024,-6.226,-1.282,92.834,-1.082,1.461,-37.068,-3108,6643,-6000,33.13,,,,,,,,,,,,,,,
 22:01:56.112,COM13,,-0.09,0.003,0.957,-3.601,-0.549,94.421,-1.022,1.456,-35.206,-3072,6824,-6139,33.13,,,,,,,,,,,,,,,
 22:01:56.141,COM13,,-0.042,-0.012,0.997,-5.92,0.793,92.896,-1.011,1.467,-33.311,-3104,6930,-6255,33.13,,,,,,,,,,,,,,,
 22:01:56.146,COM13,,-0.073,-0.029,0.974,-5.127,1.648,91.919,-0.983,1.5,-31.448,-3069,7084,-6416,33.15,,,,,,,,,,,,,,,
 22:01:56.181,COM13,,-0.085,0.016,0.984,-5.92,2.747,91.919,-0.972,1.544,-29.608,-3093,7144,-6526,33.16,,,,,,,,,,,,,,,
 22:01:56.193,COM13,,-0.083,-0.042,1.005,-5.615,2.93,91.064,-0.956,1.615,-27.762,-3085,7215,-6688,33.14,,,,,,,,,,,,,,,
 22:01:56.224,COM13,,-0.067,0.006,1.02,-6.042,1.404,89.539,-0.945,1.686,-25.939,-3015,7357,-6847,33.17,,,,,,,,,,,,,,,
 22:01:56.227,COM13,,-0.133,0.005,0.991,-3.174,0.793,92.224,-0.873,1.725,-24.142,-3041,7472,-6985,33.15,,,,,,,,,,,,,,,
 22:01:56.260,COM13,,-0.069,0.004,1.02,-3.784,-0.427,92.896,-0.807,1.752,-22.291,-3084,7525,-7136,33.15,,,,,,,,,,,,,,,
 22:01:56.263,COM13,,-0.045,0.002,0.968,-6.897,-0.244,90.698,-0.813,1.758,-20.429,-3094,7609,-7335,33.16,,,,,,,,,,,,,,,
 22:01:56.292,COM13,,-0.084,-0.005,0.974,-5.615,2.075,90.942,-0.786,1.758,-18.605,-3054,7699,-7559,33.14,,,,,,,,,,,,,,,
 22:01:56.326,COM13,,-0.115,0.021,0.98,-4.944,3.174,93.262,-0.736,1.807,-16.782,-3110,7727,-7761,33.13,,,,,,,,,,,,,,,
 22:01:56.330,COM13,,-0.053,-0.023,1.022,-6.226,2.075,91.125,-0.72,1.879,-14.914,-3145,7831,-7959,33.13,,,,,,,,,,,,,,,
 22:01:56.360,COM13,,-0.08,-0.012,0.989,-5.676,1.404,90.637,-0.692,1.923,-13.085,-3137,7931,-8220,33.16,,,,,,,,,,,,,,,
 22:01:56.363,COM13,,-0.139,0.052,1.004,-4.639,2.014,92.712,-0.643,1.956,-11.266,-3181,7972,-8454,33.11,,,,,,,,,,,,,,,
 22:01:56.393,COM13,,-0.07,-0.007,1.007,-6.958,0.61,92.224,-0.632,2,-9.404,-3194,8145,-8704,33.14,,,,,,,,,,,,,,,
 22:01:56.424,COM13,,-0.06,-0.051,0.996,-5.432,0,91.248,-0.593,2.016,-7.553,-3252,8233,-8972,33.14,,,,,,,,,,,,,,,
 22:01:56.428,COM13,,-0.101,-0.014,0.982,-5.554,0.366,88.44,-0.571,2.016,-5.724,-3317,8353,-9265,33.17,,,,,,,,,,,,,,,
 22:01:56.458,COM13,,-0.088,-0.028,0.958,-3.723,3.418,87.708,-0.511,2.021,-3.95,-3337,8489,-9586,33.14,,,,,,,,,,,,,,,
 22:01:56.464,COM13,,-0.068,0.075,1.022,-2.625,2.991,90.332,-0.417,2.093,-2.186,-3395,8566,-9885,33.16,,,,,,,,,,,,,,,
 22:01:56.495,COM13,,-0.107,0.055,1.033,-6.104,0,91.309,-0.385,2.148,-0.374,-3496,8599,-10202,33.15,,,,,,,,,,,,,,,
 22:01:56.525,COM13,,-0.105,0.013,0.98,-5.92,-1.282,92.59,-0.346,2.142,1.456,-3497,8612,-10539,33.13,,,,,,,,,,,,,,,
 22:01:56.531,COM13,,-0.068,0.041,0.944,-7.263,1.953,94.91,-0.324,2.109,3.312,-3610,8604,-10842,33.13,,,,,,,,,,,,,,,
 22:01:56.560,COM13,,-0.052,-0.043,0.992,-6.653,3.906,92.59,-0.302,2.142,5.219,-3657,8673,-11211,33.15,,,,,,,,,,,,,,,
 22:01:56.566,COM13,,-0.121,-0.042,0.99,-5.188,3.418,91.492,-0.253,2.208,7.075,-3749,8790,-11626,33.13,,,,,,,,,,,,,,,
 22:01:56.594,COM13,,-0.089,0.021,1.023,-5.371,2.808,89.172,-0.214,2.263,8.915,-3815,8836,-12084,33.13,,,,,,,,,,,,,,,
 22:01:56.625,COM13,,-0.127,-0.025,1.014,-2.258,1.221,89.6,-0.11,2.313,10.706,-3846,8775,-12539,33.13,,,,,,,,,,,,,,,
 22:01:56.632,COM13,,-0.066,0.057,1.022,-4.395,-1.343,91.125,-0.044,2.324,12.502,-4028,8742,-12894,33.14,,,,,,,,,,,,,,,
 22:01:56.661,COM13,,-0.093,0.067,0.983,-4.822,-2.319,90.271,0.011,2.285,14.332,-4127,8707,-13396,33.13,,,,,,,,,,,,,,,
 22:01:56.666,COM13,,-0.091,0.022,0.948,-6.897,0.305,93.811,0.038,2.219,16.144,-4228,8675,-13873,33.14,,,,,,,,,,,,,,,
 22:01:56.690,COM13,,-0.07,0.041,0.958,-6.592,4.028,94.299,0.071,2.208,18.029,-4304,8553,-14333,33.16,,,,,,,,,,,,,,,
 22:01:56.718,COM13,,-0.048,-0.063,1.002,-6.104,5.31,91.431,0.11,2.269,19.924,-4503,8503,-14865,33.16,,,,,,,,,,,,,,,
 22:01:56.725,COM13,,-0.132,-0.021,1.006,-4.211,4.333,89.905,0.176,2.351,21.758,-4644,8427,-15390,33.15,,,,,,,,,,,,,,,
 22:01:56.755,COM13,,-0.114,0.043,1.035,-3.357,2.075,89.478,0.258,2.411,23.566,-4732,8267,-15885,33.15,,,,,,,,,,,,,,,
 22:01:56.788,COM13,,-0.11,0.032,1.014,-4.761,-0.183,90.088,0.319,2.428,25.362,-4904,8100,-16433,33.14,,,,,,,,,,,,,,,
 22:01:56.791,COM13,,-0.075,0.042,1.012,-5.005,-1.892,91.187,0.374,2.401,27.169,-4969,7952,-17019,33.13,,,,,,,,,,,,,,,
 22:01:56.823,COM13,,-0.077,0.075,0.955,-6.348,-1.343,92.529,0.412,2.335,29.004,-5048,7728,-17577,33.16,,,,,,,,,,,,,,,
 22:01:56.828,COM13,,-0.07,0.011,0.941,-6.47,2.808,93.445,0.45,2.28,30.861,-5188,7542,-18127,33.15,,,,,,,,,,,,,,,
 22:01:56.861,COM13,,-0.103,-0.035,0.99,-6.104,5.31,92.285,0.489,2.302,32.734,-5438,7255,-18700,33.13,,,,,,,,,,,,,,,
 22:01:56.864,COM13,,-0.054,-0.031,1.037,-4.761,3.357,88.562,0.538,2.373,34.59,-5536,6888,-19328,33.2,,,,,,,,,,,,,,,
 22:01:56.919,COM13,,-0.112,-0.027,0.997,-1.953,1.526,85.327,0.637,2.406,36.37,-5551,6470,-19936,33.15,,,,,,,,,,,,,,,
 22:01:56.921,COM13,,-0.136,0.159,0.988,-3.113,1.404,90.759,0.731,2.395,38.084,-5791,6115,-20445,33.14,,,,,,,,,,,,,,,
 22:01:56.925,COM13,,-0.065,0.068,1.024,-7.08,1.038,91.98,0.753,2.39,39.908,-5863,5673,-20972,33.13,,,,,,,,,,,,,,,
 22:01:56.957,COM13,,-0.088,0.059,0.94,-5.066,0.61,91.736,0.769,2.368,41.754,-6064,5233,-21490,33.14,,,,,,,,,,,,,,,
 22:01:57.015,COM13,,-0.078,0.051,0.966,-6.042,5.432,92.834,0.824,2.307,43.572,-6159,4689,-21977,33.15,,,,,,,,,,,,,,,
 22:01:57.017,COM13,,-0.111,-0.053,1.03,-4.883,4.272,91.37,0.873,2.302,45.417,-6338,4153,-22445,33.16,,,,,,,,,,,,,,,
 22:01:57.021,COM13,,-0.109,0.01,1.033,-3.113,1.282,88.318,0.939,2.357,47.28,-6449,3507,-22955,33.17,,,,,,,,,,,,,,,
 22:01:57.048,COM13,,-0.041,0.141,1.01,-4.578,-1.77,90.881,1.016,2.379,49.098,-6543,2835,-23377,33.16,,,,,,,,,,,,,,,
 22:01:57.053,COM13,,-0.105,0.006,0.95,-5.981,-0.122,91.431,1.082,2.346,50.883,-6632,2146,-23760,33.13,,,,,,,,,,,,,,,
 22:01:57.084,COM13,,-0.105,0.035,0.959,-5.066,3.54,93.567,1.126,2.263,52.712,-6636,1383,-24055,33.17,,,,,,,,,,,,,,,
 22:01:57.087,COM13,,-0.046,0.127,1.013,-6.47,3.662,94.849,1.176,2.225,54.558,-6744,546,-24306,33.17,,,,,,,,,,,,,,,
 22:01:57.117,COM13,,-0.099,0.031,0.992,-8.057,2.502,96.252,1.214,2.241,56.442,-6881,-272,-24523,33.17,,,,,,,,,,,,,,,
 22:01:57.147,COM13,,-0.105,-0.022,0.978,-6.775,3.662,95.337,1.23,2.252,58.354,-6985,-1065,-24644,33.14,,,,,,,,,,,,,,,
 22:01:57.154,COM13,,-0.084,0.04,1.021,-6.042,3.296,93.384,1.263,2.247,60.282,-7194,-1895,-24741,33.14,,,,,,,,,,,,,,,
 22:01:57.185,COM13,,-0.104,-0.018,1.008,-5.737,1.831,92.102,1.302,2.258,62.188,-7350,-2781,-24761,33.2,,,,,,,,,,,,,,,
 22:01:57.196,COM13,,-0.103,-0.038,1.021,-5.92,-1.099,88.135,1.335,2.258,64.061,-7360,-3734,-24674,33.15,,,,,,,,,,,,,,,
 22:01:57.215,COM13,,-0.072,0.017,1.001,-1.648,-1.221,86.609,1.373,2.219,65.891,-7305,-4795,-24461,33.17,,,,,,,,,,,,,,,
 22:01:57.246,COM13,,-0.028,0.199,0.936,0.366,1.892,94.238,1.483,2.142,67.648,-7212,-5771,-24138,33.18,,,,,,,,,,,,,,,
 22:01:57.249,COM13,,-0.109,0.056,0.991,-11.23,3.174,92.651,1.588,2.071,69.423,-7361,-6532,-23868,33.17,,,,,,,,,,,,,,,
 22:01:57.278,COM13,,-0.09,0.056,0.966,-9.46,3.662,92.896,1.527,2.043,71.307,-7385,-7392,-23319,33.17,,,,,,,,,,,,,,,
 22:01:57.285,COM13,,-0.043,0.077,0.995,-8.484,4.761,96.375,1.505,2.043,73.169,-7233,-8282,-22776,33.15,,,,,,,,,,,,,,,
 22:01:57.316,COM13,,-0.099,-0.065,1.032,-7.69,4.272,94.666,1.511,2.054,75.053,-7235,-9060,-22201,33.15,,,,,,,,,,,,,,,
 22:01:57.347,COM13,,-0.143,-0.011,0.998,-5.798,1.831,89.722,1.516,2.071,76.981,-7334,-9774,-21612,33.14,,,,,,,,,,,,,,,
 22:01:57.352,COM13,,-0.031,0.063,0.99,-6.287,1.648,88.562,1.538,2.076,78.86,-7354,-10505,-20850,33.18,,,,,,,,,,,,,,,
 22:01:57.382,COM13,,-0.042,-0.028,0.992,-4.333,2.563,89.294,1.56,2.049,80.651,-7202,-11249,-19988,33.17,,,,,,,,,,,,,,,
 22:01:57.385,COM13,,-0.134,-0.061,0.996,-3.54,3.052,83.984,1.604,2.021,82.436,-7140,-11850,-19157,33.13,,,,,,,,,,,,,,,
 22:01:57.415,COM13,,-0.054,0.167,0.99,3.723,3.418,88.196,1.686,2,84.199,-7039,-12330,-18233,33.14,,,,,,,,,,,,,,,
 22:01:57.445,COM13,,-0.059,0.097,1.042,-6.165,0.366,89.111,1.846,2,85.908,-6982,-12734,-17383,33.17,,,,,,,,,,,,,,,
 22:01:57.450,COM13,,-0.092,0.054,0.944,-6.042,0.854,89.6,1.868,1.978,87.682,-7001,-13018,-16505,33.12,,,,,,,,,,,,,,,
 22:01:57.480,COM13,,-0.079,0.124,0.961,-6.958,3.662,92.163,1.884,1.906,89.473,-6609,-13428,-15336,33.16,,,,,,,,,,,,,,,
 22:01:57.487,COM13,,-0.083,0.072,0.969,-11.047,5.493,94.482,1.884,1.857,91.285,-6502,-13647,-14384,33.17,,,,,,,,,,,,,,,
 22:01:57.517,COM13,,-0.127,-0.056,1.073,-9.338,2.441,91.064,1.829,1.862,93.148,-6481,-13786,-13557,33.17,,,,,,,,,,,,,,,
 22:01:57.550,COM13,,-0.084,0.028,1.018,-6.47,-1.404,89.355,1.802,1.873,95.026,-6276,-13958,-12431,33.16,,,,,,,,,,,,,,,
 22:01:57.554,COM13,,-0.021,-0.022,0.981,-4.395,-0.671,88.928,1.813,1.835,96.844,-6097,-14012,-11401,33.17,,,,,,,,,,,,,,,
 22:01:57.583,COM13,,-0.089,0.036,0.979,-0.916,1.587,88.684,1.868,1.736,98.635,-5927,-13980,-10464,33.17,,,,,,,,,,,,,,,
 22:01:57.588,COM13,,-0.065,0.141,1.003,-3.662,1.221,89.966,1.956,1.659,100.415,-5806,-13863,-9596,33.18,,,,,,,,,,,,,,,
 22:01:57.616,COM13,,-0.029,0.087,0.968,-6.714,0.61,91.492,2,1.615,102.2,-5631,-13681,-8703,33.16,,,,,,,,,,,,,,,
 22:01:57.649,COM13,,-0.064,0.042,0.922,-7.813,6.226,93.445,2,1.555,104.013,-5359,-13476,-7758,33.14,,,,,,,,,,,,,,,
 22:01:57.652,COM13,,-0.137,0.017,1,-8.423,8.667,90.454,1.983,1.505,105.859,-5257,-13210,-7029,33.13,,,,,,,,,,,,,,,
 22:01:57.683,COM13,,-0.073,0.04,1.081,-7.019,3.113,90.576,1.956,1.555,107.721,-4965,-12941,-6232,33.15,,,,,,,,,,,,,,,
 22:01:57.687,COM13,,-0.081,-0.007,1.076,-4.333,-3.723,90.088,1.961,1.62,109.539,-4813,-12613,-5506,33.16,,,,,,,,,,,,,,,
 22:01:57.714,COM13,,-0.103,0.048,0.948,-6.287,-5.31,88.318,1.989,1.571,111.352,-4759,-12278,-4911,33.15,,,,,,,,,,,,,,,
 22:01:57.751,COM13,,-0.014,0.024,0.954,-3.479,-0.427,87.341,1.989,1.412,113.148,-4594,-11881,-4369,33.16,,,,,,,,,,,,,,,
 22:01:57.755,COM13,,0.017,0.103,0.944,-4.578,3.296,89.233,2.027,1.258,114.906,-4312,-11514,-3706,33.15,,,,,,,,,,,,,,,
 22:01:57.808,COM13,,-0.095,0.045,0.976,-5.737,5.981,90.759,2.043,1.187,116.664,-4200,-11136,-3230,33.17,,,,,,,,,,,,,,,
 22:01:57.812,COM13,,-0.085,0.083,0.981,-7.202,6.592,89.233,2.043,1.176,118.466,-4136,-10719,-2818,33.15,,,,,,,,,,,,,,,
 22:01:57.814,COM13,,-0.072,0.024,1.066,-7.08,5.92,90.942,2.027,1.214,120.278,-3886,-10270,-2318,33.18,,,,,,,,,,,,,,,
 22:01:57.842,COM13,,-0.091,0.023,1.042,-5.188,0.061,90.149,2.021,1.258,122.08,-3761,-9839,-1902,33.13,,,,,,,,,,,,,,,
 22:01:57.846,COM13,,-0.094,0.073,0.999,-6.592,-2.808,89.661,2.027,1.258,123.904,-3674,-9392,-1613,33.17,,,,,,,,,,,,,,,
 22:01:57.876,COM13,,-0.034,0.03,0.966,-5.737,-1.77,89.05,2.016,1.165,125.706,-3606,-8998,-1354,33.17,,,,,,,,,,,,,,,
 22:01:57.907,COM13,,-0.03,0.061,0.969,-6.226,0.244,90.515,2.01,1.038,127.496,-3455,-8667,-1150,33.2,,,,,,,,,,,,,,,
 22:01:57.914,COM13,,-0.04,0.051,0.97,-5.737,3.052,91.37,2,0.934,129.287,-3349,-8297,-927,33.13,,,,,,,,,,,,,,,
 22:01:57.943,COM13,,-0.062,0.029,0.952,-6.775,6.775,89.172,1.994,0.868,131.105,-3372,-7907,-815,33.14,,,,,,,,,,,,,,,
 22:01:57.948,COM13,,-0.075,0.027,1.053,-5.493,5.859,90.332,1.972,0.862,132.924,-3195,-7523,-604,33.14,,,,,,,,,,,,,,,
 22:01:57.978,COM13,,-0.103,0.083,1.048,-5.615,0.061,90.576,1.972,0.912,134.725,-3162,-7210,-509,33.16,,,,,,,,,,,,,,,
 22:01:58.007,COM13,,-0.038,0.03,0.999,-5.249,-2.258,91.858,1.972,0.917,136.538,-3028,-6876,-342,33.14,,,,,,,,,,,,,,,
 22:01:58.011,COM13,,-0.054,0.036,0.964,-5.737,-0.061,90.759,1.972,0.829,138.356,-3008,-6525,-256,33.17,,,,,,,,,,,,,,,
 22:01:58.039,COM13,,-0.061,0.081,0.946,-6.226,2.625,91.003,1.961,0.714,140.191,-3010,-6149,-186,33.17,,,,,,,,,,,,,,,
 22:01:58.070,COM13,,-0.015,0.037,1.03,-6.226,3.54,91.431,1.939,0.648,142.009,-2943,-5837,-66,33.13,,,,,,,,,,,,,,,
 22:01:58.074,COM13,,-0.089,0.078,0.965,-6.653,3.296,93.445,1.923,0.621,143.833,-2938,-5574,-131,33.17,,,,,,,,,,,,,,,
 22:01:58.104,COM13,,-0.057,0.009,1.007,-7.019,3.357,92.163,1.895,0.61,145.679,-2828,-5293,-85,33.12,,,,,,,,,,,,,,,
 22:01:58.108,COM13,,-0.056,0.05,1.031,-5.737,1.953,92.773,1.868,0.593,147.546,-2856,-5052,-143,33.16,,,,,,,,,,,,,,,
 22:01:58.138,COM13,,-0.065,-0.016,0.988,-5.493,1.77,92.102,1.857,0.577,149.398,-2792,-4760,-154,33.14,,,,,,,,,,,,,,,
 22:01:58.169,COM13,,-0.072,0.036,1.024,-4.822,-1.892,88.562,1.846,0.533,151.249,-2849,-4577,-219,33.15,,,,,,,,,,,,,,,
 22:01:58.174,COM13,,-0.009,0.083,0.935,-5.127,1.282,92.041,1.835,0.456,153.056,-2858,-4290,-253,33.15,,,,,,,,,,,,,,,
 22:01:58.206,COM13,,-0.055,0.055,1.001,-6.47,3.296,89.6,1.813,0.379,154.863,-2814,-4068,-289,33.17,,,,,,,,,,,,,,,
 22:01:58.209,COM13,,-0.047,0.042,0.996,-5.005,3.601,94.299,1.796,0.346,156.682,-2743,-3804,-318,33.17,,,,,,,,,,,,,,,
 22:01:58.231,COM13,,-0.091,0.042,1.037,-7.141,1.282,91.431,1.774,0.341,158.527,-2783,-3545,-387,33.15,,,,,,,,,,,,,,,
 22:01:58.286,COM13,,-0.033,0.042,0.957,-5.615,0,92.59,1.741,0.308,160.384,-2730,-3368,-427,33.17,,,,,,,,,,,,,,,
 22:01:58.289,COM13,,-0.06,-0.009,1.053,-6.165,2.686,91.797,1.714,0.253,162.23,-2710,-3177,-484,33.15,,,,,,,,,,,,,,,
 22:01:58.291,COM13,,-0.038,0.106,0.961,-5.798,-0.977,92.224,1.681,0.203,164.075,-2752,-3011,-533,33.15,,,,,,,,,,,,,,,
 22:01:58.320,COM13,,-0.036,-0.018,0.943,-6.653,3.357,91.98,1.648,0.148,165.916,-2840,-2895,-658,33.15,,,,,,,,,,,,,,,
 22:01:58.327,COM13,,-0.038,0.053,1.028,-5.493,3.052,91.553,1.609,0.104,167.761,-2878,-2707,-720,33.17,,,,,,,,,,,,,,,
 22:01:58.358,COM13,,-0.086,0.047,1.023,-6.042,2.747,92.712,1.582,0.093,169.601,-2890,-2519,-821,33.17,,,,,,,,,,,,,,,
 22:01:58.392,COM13,,-0.037,0.009,1.01,-5.615,-1.221,91.309,1.549,0.082,171.447,-2931,-2340,-935,33.17,,,,,,,,,,,,,,,
 22:01:58.396,COM13,,-0.033,0.006,0.957,-5.249,1.465,90.759,1.522,0.033,173.287,-3023,-2209,-1045,33.13,,,,,,,,,,,,,,,
 22:01:58.430,COM13,,-0.041,0.082,0.987,-5.615,2.747,90.393,1.489,-0.033,175.111,-2985,-2063,-1124,33.15,,,,,,,,,,,,,,,
 22:01:58.434,COM13,,-0.058,-0.015,1.034,-4.822,1.709,92.102,1.467,-0.055,176.924,-2986,-1892,-1204,33.16,,,,,,,,,,,,,,,
 22:01:58.466,COM13,,-0.051,0.072,0.999,-6.47,0.183,89.783,1.428,-0.077,178.753,-2968,-1804,-1293,33.19,,,,,,,,,,,,,,,
 22:01:58.470,COM13,,-0.038,0.054,0.969,-5.188,2.38,93.201,1.39,-0.121,-179.423,-2988,-1606,-1337,33.12,,,,,,,,,,,,,,,
 22:01:58.499,COM13,,-0.053,0.063,1.004,-6.958,1.282,93.811,1.351,-0.159,-177.589,-3031,-1487,-1436,33.15,,,,,,,,,,,,,,,
 22:01:58.531,COM13,,-0.012,-0.027,0.983,-5.493,2.563,93.75,1.313,-0.181,-175.721,-3069,-1398,-1523,33.16,,,,,,,,,,,,,,,
 22:01:58.534,COM13,,-0.063,0.016,1.012,-6.592,1.77,89.539,1.263,-0.209,-173.842,-3146,-1259,-1631,33.15,,,,,,,,,,,,,,,
 22:01:58.563,COM13,,-0.053,0.085,0.979,-4.944,2.441,93.872,1.225,-0.225,-172.007,-3171,-1141,-1690,33.11,,,,,,,,,,,,,,,
 22:01:58.568,COM13,,-0.027,0.019,1.031,-6.409,0.61,93.262,1.192,-0.242,-170.167,-3234,-1010,-1801,33.13,,,,,,,,,,,,,,,
 22:01:58.600,COM13,,-0.047,0.015,0.966,-6.165,0.427,92.651,1.143,-0.269,-168.294,-3223,-900,-1842,33.18,,,,,,,,,,,,,,,
 22:01:58.633,COM13,,-0.066,0.036,1.01,-5.92,3.54,93.201,1.093,-0.313,-166.432,-3251,-784,-1933,33.13,,,,,,,,,,,,,,,
 22:01:58.636,COM13,,-0.021,0.042,0.979,-6.836,1.526,93.14,1.044,-0.33,-164.575,-3288,-738,-2023,33.14,,,,,,,,,,,,,,,
 22:01:58.661,COM13,,-0.045,-0.011,1.012,-5.859,2.258,94.666,0.994,-0.33,-162.708,-3340,-578,-2095,33.16,,,,,,,,,,,,,,,
 22:01:58.668,COM13,,-0.047,0.054,1.026,-7.385,-0.61,90.881,0.934,-0.341,-160.829,-3347,-496,-2177,33.15,,,,,,,,,,,,,,,
 22:01:58.722,COM13,,-0.1,0.043,0.981,-6.165,1.099,95.337,0.873,-0.374,-158.972,-3348,-353,-2218,33.19,,,,,,,,,,,,,,,
 22:01:58.725,COM13,,0.018,0.021,0.997,-6.836,-2.014,95.276,0.818,-0.412,-157.104,-3460,-221,-2333,33.15,,,,,,,,,,,,,,,
 22:01:58.727,COM13,,-0.022,-0.016,0.946,-6.104,3.113,93.933,0.758,-0.467,-155.198,-3466,-93,-2396,33.15,,,,,,,,,,,,,,,
 22:01:58.751,COM13,,-0.075,0.032,0.996,-6.958,4.822,92.468,0.698,-0.5,-153.303,-3553,35,-2464,33.17,,,,,,,,,,,,,,,
 22:01:58.784,COM13,,-0.003,0.04,0.987,-6.165,5.92,95.215,0.637,-0.461,-151.436,-3557,155,-2532,33.11,,,,,,,,,,,,,,,
 22:01:58.787,COM13,,-0.074,-0.059,1.069,-6.775,0.244,93.201,0.582,-0.396,-149.557,-3634,215,-2587,33.16,,,,,,,,,,,,,,,
 22:01:58.815,COM13,,-0.075,0.056,0.97,-6.714,-0.244,90.332,0.516,-0.374,-147.673,-3627,334,-2624,33.17,,,,,,,,,,,,,,,
 22:01:58.847,COM13,,-0.043,0.001,1.035,-6.653,0.549,92.468,0.45,-0.406,-145.833,-3658,462,-2705,33.15,,,,,,,,,,,,,,,
 22:01:58.853,COM13,,-0.009,-0.015,0.97,-6.042,-1.526,91.675,0.39,-0.434,-144.003,-3651,550,-2775,33.14,,,,,,,,,,,,,,,
 22:01:58.884,COM13,,-0.054,-0.023,0.985,-5.92,1.404,88.135,0.33,-0.472,-142.163,-3722,641,-2846,33.15,,,,,,,,,,,,,,,
 22:01:58.887,COM13,,-0.024,0.027,0.962,-5.737,2.197,88.867,0.269,-0.5,-140.361,-3699,761,-2893,33.17,,,,,,,,,,,,,,,
 22:01:58.916,COM13,,-0.013,0.008,1.023,-5.554,3.601,89.172,0.22,-0.489,-138.587,-3711,900,-2918,33.17,,,,,,,,,,,,,,,
 22:01:58.948,COM13,,-0.062,0.007,1.007,-4.211,0.977,89.539,0.187,-0.461,-136.807,-3768,1049,-2982,33.15,,,,,,,,,,,,,,,
 22:01:58.954,COM13,,-0.062,0.137,0.991,-5.859,1.16,93.506,0.154,-0.439,-135.016,-3829,1140,-3061,33.17,,,,,,,,,,,,,,,
 22:01:58.984,COM13,,-0.019,0.036,1.017,-7.324,0.427,96.13,0.104,-0.445,-133.182,-3868,1206,-3105,33.17,,,,,,,,,,,,,,,
 22:01:58.989,COM13,,-0.072,-0.013,0.95,-6.226,1.709,98.022,0.055,-0.45,-131.287,-3921,1320,-3139,33.13,,,,,,,,,,,,,,,
 22:01:59.019,COM13,,-0.013,-0.01,1.001,-7.141,3.967,97.656,0,-0.45,-129.342,-4060,1381,-3192,33.13,,,,,,,,,,,,,,,
 22:01:59.051,COM13,,-0.066,-0.104,1.027,-6.836,2.014,90.332,-0.066,-0.412,-127.381,-3958,1482,-3222,33.16,,,,,,,,,,,,,,,
 22:01:59.055,COM13,,-0.064,-0.083,1,-3.54,0.427,87.646,-0.11,-0.374,-125.502,-3861,1539,-3262,33.17,,,,,,,,,,,,,,,
 22:01:59.086,COM13,,-0.008,0.008,0.996,-5.859,0.732,83.374,-0.154,-0.363,-123.717,-3920,1731,-3299,33.16,,,,,,,,,,,,,,,
 22:01:59.089,COM13,,-0.039,0.046,1.005,-1.526,-0.183,85.693,-0.176,-0.357,-122.009,-3867,1842,-3329,33.17,,,,,,,,,,,,,,,
 22:01:59.115,COM13,,-0.034,0.155,0.95,-7.996,1.648,92.529,-0.209,-0.368,-120.317,-4004,1832,-3414,33.15,,,,,,,,,,,,,,,
 22:01:59.150,COM13,,-0.032,-0.076,1.007,-6.958,3.418,90.332,-0.275,-0.368,-118.531,-3979,1956,-3443,33.17,,,,,,,,,,,,,,,
 22:01:59.153,COM13,,-0.049,0.025,0.979,-4.578,2.991,94.482,-0.313,-0.33,-116.702,-3884,2043,-3492,33.15,,,,,,,,,,,,,,,
 22:01:59.179,COM13,,-0.037,-0.048,0.994,-5.798,4.944,89.966,-0.341,-0.275,-114.851,-3911,2167,-3540,33.14,,,,,,,,,,,,,,,
 22:01:59.213,COM13,,-0.099,-0.016,1.037,-5.249,2.625,87.524,-0.379,-0.209,-113,-3897,2290,-3589,33.14,,,,,,,,,,,,,,,
 22:01:59.216,COM13,,-0.016,0.004,1.036,-4.517,0.122,89.111,-0.406,-0.143,-111.226,-3811,2331,-3620,33.18,,,,,,,,,,,,,,,
 22:01:59.246,COM13,,-0.056,0.016,0.993,-5.554,-2.747,88.562,-0.434,-0.121,-109.457,-3775,2467,-3665,33.18,,,,,,,,,,,,,,,
 22:01:59.249,COM13,,-0.05,-0.036,0.91,-6.592,1.892,86.365,-0.483,-0.148,-107.677,-3759,2546,-3704,33.16,,,,,,,,,,,,,,,
 22:01:59.274,COM13,,-0.014,0.034,1.022,-5.188,5.005,88.44,-0.533,-0.165,-105.925,-3735,2741,-3737,33.14,,,,,,,,,,,,,,,
 22:01:59.305,COM13,,-0.038,-0.081,1.01,-4.883,2.563,87.097,-0.555,-0.093,-104.178,-3700,2859,-3765,33.11,,,,,,,,,,,,,,,
 22:01:59.308,COM13,,-0.099,0.054,1.015,-4.211,1.282,86.487,-0.571,-0.027,-102.42,-3688,2885,-3751,33.16,,,,,,,,,,,,,,,
 22:01:59.364,COM13,,-0.022,-0.014,1.037,-4.822,-1.221,86.182,-0.588,0.005,-100.684,-3744,2970,-3781,33.15,,,,,,,,,,,,,,,
 22:01:59.366,COM13,,-0.067,-0.062,0.955,-4.639,-0.427,85.266,-0.61,-0.005,-98.954,-3695,3058,-3835,33.14,,,,,,,,,,,,,,,
 22:01:59.369,COM13,,-0.04,0.046,0.981,-5.127,1.77,83.984,-0.637,-0.022,-97.245,-3660,3179,-3863,33.14,,,,,,,,,,,,,,,
 22:01:59.397,COM13,,-0.006,0.042,1.012,-6.47,2.075,86.304,-0.676,0.005,-95.554,-3685,3292,-3909,33.17,,,,,,,,,,,,,,,
 22:01:59.428,COM13,,-0.06,-0.056,0.985,-3.662,1.282,87.097,-0.681,0.044,-93.84,-3596,3455,-3944,33.17,,,,,,,,,,,,,,,
 22:01:59.434,COM13,,-0.088,0.011,0.986,-7.263,2.075,85.449,-0.731,0.071,-92.098,-3667,3521,-3980,33.13,,,,,,,,,,,,,,,
 22:01:59.465,COM13,,-0.008,-0.036,0.998,-2.93,2.136,86.609,-0.731,0.11,-90.379,-3651,3658,-4018,33.17,,,,,,,,,,,,,,,
 22:01:59.468,COM13,,-0.054,0.076,1.049,-5.249,0.854,86.426,-0.742,0.159,-88.649,-3651,3715,-4064,33.16,,,,,,,,,,,,,,,
 22:01:59.499,COM13,,-0.088,-0.013,0.969,-5.493,-0.427,88.379,-0.758,0.181,-86.918,-3598,3812,-4086,33.16,,,,,,,,,,,,,,,
 22:01:59.528,COM13,,-0.043,-0.051,0.989,-6.042,-0.183,85.144,-0.791,0.181,-85.161,-3575,3942,-4123,33.15,,,,,,,,,,,,,,,
 22:01:59.536,COM13,,-0.019,0.065,0.979,-5.859,1.343,88.379,-0.824,0.187,-83.436,-3588,4073,-4165,33.17,,,,,,,,,,,,,,,
 22:01:59.565,COM13,,-0.06,-0.017,0.982,-4.456,3.54,89.783,-0.824,0.209,-81.683,-3564,4202,-4203,33.14,,,,,,,,,,,,,,,
 22:01:59.569,COM13,,-0.063,0.018,1.018,-6.226,2.197,88.562,-0.846,0.275,-79.893,-3538,4348,-4247,33.13,,,,,,,,,,,,,,,
 22:01:59.624,COM13,,-0.069,-0.034,0.999,-4.272,1.709,90.82,-0.846,0.33,-78.113,-3525,4480,-4280,33.19,,,,,,,,,,,,,,,
 22:01:59.628,COM13,,-0.053,0.083,1.015,-7.08,0.366,91.003,-0.873,0.374,-76.306,-3490,4619,-4333,33.16,,,,,,,,,,,,,,,
 22:01:59.630,COM13,,-0.091,-0.018,0.967,-7.996,0.549,90.759,-0.923,0.396,-74.482,-3500,4678,-4374,33.15,,,,,,,,,,,,,,,
 22:01:59.665,COM13,,-0.005,-0.011,1.027,-6.592,0.793,93.323,-0.956,0.417,-72.664,-3500,4813,-4449,33.13,,,,,,,,,,,,,,,
 22:01:59.668,COM13,,-0.107,0.03,0.99,-6.226,0.244,95.093,-0.972,0.445,-70.807,-3450,4910,-4512,33.15,,,,,,,,,,,,,,,
 22:01:59.696,COM13,,-0.06,-0.01,0.954,-8.179,2.319,92.59,-1.016,0.461,-68.912,-3402,4935,-4573,33.17,,,,,,,,,,,,,,,
 22:01:59.729,COM13,,-0.029,0.012,0.99,-5.249,3.662,96.985,-1.022,0.516,-67.044,-3367,5051,-4631,33.17,,,,,,,,,,,,,,,
 22:01:59.733,COM13,,-0.087,0.012,1.005,-9.033,4.028,95.215,-1.066,0.599,-65.127,-3345,5145,-4687,33.17,,,,,,,,,,,,,,,
 22:01:59.761,COM13,,-0.078,-0.018,1.013,-6.592,2.502,95.093,-1.088,0.687,-63.21,-3287,5275,-4758,33.2,,,,,,,,,,,,,,,
 22:01:59.781,COM13,,-0.063,-0.069,0.994,-7.263,2.319,95.032,-1.115,0.764,-61.304,-3321,5393,-4833,33.16,,,,,,,,,,,,,,,
 22:01:59.810,COM13,,-0.082,0.009,1.006,-5.981,0.854,93.567,-1.126,0.829,-59.398,-3316,5481,-4905,33.16,,,,,,,,,,,,,,,
 22:01:59.813,COM13,,-0.072,0.008,0.997,-6.348,-0.488,93.689,-1.137,0.873,-57.513,-3338,5641,-4973,33.15,,,,,,,,,,,,,,,
 22:01:59.843,COM13,,-0.079,-0.062,0.996,-5.249,1.404,94.482,-1.132,0.89,-55.64,-3272,5705,-5043,33.17,,,,,,,,,,,,,,,
 22:01:59.849,COM13,,-0.037,0.023,0.963,-5.859,1.953,94.238,-1.132,0.928,-53.751,-3217,5768,-5125,33.17,,,,,,,,,,,,,,,
 22:01:59.881,COM13,,-0.083,-0.021,0.985,-7.08,4.089,91.919,-1.148,0.989,-51.861,-3227,5891,-5221,33.13,,,,,,,,,,,,,,,
 22:01:59.914,COM13,,-0.089,0.015,1.024,-5.127,2.075,94.91,-1.143,1.077,-50.004,-3237,5938,-5297,33.15,,,,,,,,,,,,,,,
 22:01:59.917,COM13,,-0.101,-0.037,1.017,-5.676,0.732,94.604,-1.126,1.148,-48.12,-3220,6077,-5361,33.17,,,,,,,,,,,,,,,
 22:01:59.944,COM13,,-0.016,0.022,0.981,-6.348,0.366,93.567,-1.126,1.192,-46.219,-3218,6166,-5456,33.15,,,,,,,,,,,,,,,
 22:01:59.948,COM13,,-0.124,-0.013,0.965,-5.859,1.831,95.093,-1.115,1.219,-44.341,-3167,6355,-5571,33.16,,,,,,,,,,,,,,,
 22:01:59.977,COM13,,-0.07,-0.011,1.019,-5.92,2.502,94.91,-1.104,1.263,-42.44,-3111,6448,-5690,33.17,,,,,,,,,,,,,,,
 22:02:00.012,COM13,,-0.06,-0.017,1.009,-5.615,0.061,94.482,-1.088,1.335,-40.54,-3126,6482,-5784,33.18,,,,,,,,,,,,,,,
 22:02:00.015,COM13,,-0.091,0.005,0.967,-6.47,1.282,93.689,-1.082,1.368,-38.639,-3165,6603,-5873,33.2,,,,,,,,,,,,,,,
 22:02:00.041,COM13,,-0.08,-0.016,0.985,-5.371,2.686,94.91,-1.06,1.401,-36.76,-3167,6677,-5981,33.16,,,,,,,,,,,,,,,
 22:02:00.072,COM13,,-0.069,-0.019,1.009,-5.371,2.625,94.299,-1.038,1.467,-34.86,-3160,6782,-6113,33.18,,,,,,,,,,,,,,,
 22:02:00.077,COM13,,-0.093,-0.016,1.034,-6.409,0.244,92.468,-1.027,1.538,-32.97,-3154,6905,-6244,33.15,,,,,,,,,,,,,,,
 22:02:00.110,COM13,,-0.103,-0.012,0.97,-5.249,0,92.896,-1.005,1.571,-31.102,-3053,6946,-6397,33.15,,,,,,,,,,,,,,,
 22:02:00.112,COM13,,-0.054,-0.006,0.979,-5.188,1.648,92.59,-0.978,1.588,-29.246,-3071,7112,-6549,33.16,,,,,,,,,,,,,,,
 22:02:00.140,COM13,,-0.072,-0.039,1.001,-5.493,1.892,91.125,-0.956,1.626,-27.383,-3141,7190,-6691,33.16,,,,,,,,,,,,,,,
 22:02:00.172,COM13,,-0.092,-0.005,1.001,-3.113,2.014,91.125,-0.901,1.675,-25.549,-3156,7296,-6847,33.17,,,,,,,,,,,,,,,
 22:02:00.175,COM13,,-0.112,0.046,1.012,-4.639,0.732,92.529,-0.846,1.73,-23.719,-3178,7436,-6993,33.16,,,,,,,,,,,,,,,
 22:02:00.204,COM13,,-0.061,0.011,0.999,-5.554,-0.244,93.018,-0.813,1.758,-21.874,-3113,7477,-7188,33.17,,,,,,,,,,,,,,,
 22:02:00.210,COM13,,-0.055,0.009,0.964,-8.118,0.305,93.506,-0.818,1.774,-20.006,-3106,7645,-7362,33.14,,,,,,,,,,,,,,,
 22:02:00.237,COM13,,-0.097,-0.021,0.959,-6.348,3.357,93.018,-0.807,1.78,-18.133,-3081,7719,-7593,33.17,,,,,,,,,,,,,,,
 22:02:00.269,COM13,,-0.079,-0.013,1.006,-5.798,4.456,92.896,-0.78,1.84,-16.265,-3136,7787,-7806,33.14,,,,,,,,,,,,,,,
 22:02:00.275,COM13,,-0.101,0.001,1.02,-5.493,2.93,92.285,-0.747,1.928,-14.403,-3152,7927,-8014,33.16,,,,,,,,,,,,,,,
 22:02:00.291,COM13,,-0.102,-0.02,1.007,-5.737,0.61,91.248,-0.714,2,-12.546,-3199,7989,-8231,33.17,,,,,,,,,,,,,,,
 22:02:00.320,COM13,,-0.106,-0.017,1.012,-4.822,-0.732,90.942,-0.67,2.032,-10.712,-3178,8089,-8486,33.17,,,,,,,,,,,,,,,
 22:02:00.377,COM13,,-0.073,-0.014,0.986,-3.296,-0.427,90.515,-0.61,2.032,-8.882,-3152,8211,-8734,33.15,,,,,,,,,,,,,,,
 22:02:00.382,COM13,,-0.085,0.007,1.003,-4.883,-0.427,89.661,-0.56,2.027,-7.064,-3257,8273,-8965,33.18,,,,,,,,,,,,,,,
 22:02:00.385,COM13,,-0.053,0.015,0.968,-4.761,-0.061,88.501,-0.522,2.021,-5.262,-3251,8285,-9284,33.16,,,,,,,,,,,,,,,
 22:02:00.413,COM13,,-0.071,0.032,0.954,-4.822,3.113,91.125,-0.472,2.016,-3.477,-3324,8319,-9569,33.14,,,,,,,,,,,,,,,
 22:02:00.418,COM13,,-0.101,0.056,1.003,-6.47,4.578,92.773,-0.439,2.054,-1.664,-3352,8458,-9897,33.17,,,,,,,,,,,,,,,
 22:02:00.447,COM13,,-0.106,0,1.032,-6.348,2.502,93.323,-0.406,2.137,0.187,-3398,8525,-10257,33.17,,,,,,,,,,,,,,,
 22:02:00.450,COM13,,-0.103,0.049,0.988,-5.859,1.587,95.886,-0.357,2.186,2.06,-3518,8543,-10589,33.16,,,,,,,,,,,,,,,
 22:02:00.480,COM13,,-0.077,-0.019,0.981,-6.104,2.075,94.727,-0.313,2.219,3.972,-3664,8556,-10887,33.14,,,,,,,,,,,,,,,
 22:02:00.511,COM13,,-0.102,-0.078,1.022,-5.188,1.221,92.163,-0.269,2.252,5.872,-3757,8642,-11255,33.14,,,,,,,,,,,,,,,
 22:02:00.516,COM13,,-0.082,-0.009,1.004,-5.249,-0.61,88.501,-0.231,2.269,7.723,-3836,8777,-11703,33.17,,,,,,,,,,,,,,,
 22:02:00.546,COM13,,-0.088,-0.006,0.976,-5.249,0.854,86.426,-0.198,2.247,9.498,-3835,8863,-12146,33.17,,,,,,,,,,,,,,,
 22:02:00.549,COM13,,-0.087,-0.021,0.966,-0.732,2.136,87.769,-0.077,2.252,11.234,-3876,8768,-12583,33.17,,,,,,,,,,,,,,,
 22:02:00.579,COM13,,-0.085,0.141,1.032,-3.479,2.136,91.187,0.005,2.285,12.997,-4089,8707,-12959,33.17,,,,,,,,,,,,,,,
 22:02:00.609,COM13,,-0.087,0.088,1.006,-7.263,-0.671,92.651,0.033,2.307,14.826,-4150,8692,-13434,33.15,,,,,,,,,,,,,,,
 22:02:00.615,COM13,,-0.097,0.009,0.954,-7.385,0.549,96.741,0.06,2.274,16.688,-4192,8629,-13925,33.19,,,,,,,,,,,,,,,
 22:02:00.643,COM13,,-0.088,0.012,0.968,-7.813,3.296,96.008,0.077,2.263,18.633,-4353,8559,-14410,33.13,,,,,,,,,,,,,,,
 22:02:00.650,COM13,,-0.084,-0.045,0.998,-5.798,4.761,94.055,0.126,2.307,20.561,-4539,8502,-14900,33.16,,,,,,,,,,,,,,,
 22:02:00.681,COM13,,-0.075,-0.066,1.028,-4.7,2.93,90.942,0.181,2.384,22.451,-4674,8348,-15443,33.15,,,,,,,,,,,,,,,
 22:02:00.712,COM13,,-0.123,-0.009,0.995,-5.432,1.038,84.778,0.209,2.417,24.274,-4700,8237,-16065,33.19,,,,,,,,,,,,,,,
 22:02:00.719,COM13,,-0.124,-0.043,1.017,-1.343,0.854,85.022,0.313,2.411,25.977,-4721,8076,-16641,33.13,,,,,,,,,,,,,,,
 22:02:00.749,COM13,,-0.053,0.157,1.026,-1.038,-1.465,89.844,0.445,2.406,27.686,-4972,7907,-17134,33.14,,,,,,,,,,,,,,,
 22:02:00.752,COM13,,-0.063,0.083,0.969,-8.057,-2.502,89.783,0.439,2.351,29.487,-5177,7753,-17644,33.16,,,,,,,,,,,,,,,
 22:02:00.781,COM13,,-0.1,0.018,0.905,-5.92,2.38,92.59,0.489,2.269,31.289,-5197,7455,-18245,33.17,,,,,,,,,,,,,,,
 22:02:00.798,COM13,,-0.074,0.07,1.001,-6.592,5.554,95.825,0.533,2.28,33.151,-5307,7192,-18794,33.14,,,,,,,,,,,,,,,
 22:02:00.828,COM13,,-0.065,-0.02,1.005,-6.958,5.005,93.506,0.56,2.351,35.079,-5517,6877,-19350,33.16,,,,,,,,,,,,,,,
 22:02:00.832,COM13,,-0.097,-0.066,1.018,-3.723,2.869,91.736,0.643,2.411,36.958,-5627,6432,-19951,33.18,,,,,,,,,,,,,,,
 22:02:00.863,COM13,,-0.136,0.07,0.977,-4.639,3.357,89.783,0.703,2.428,38.798,-5875,6108,-20484,33.17,,,,,,,,,,,,,,,
 22:02:00.894,COM13,,-0.105,0.005,1.053,-5.31,1.648,89.355,0.753,2.455,40.605,-5942,5632,-21077,33.17,,,,,,,,,,,,,,,
 22:02:00.897,COM13,,-0.095,0.058,1.021,-3.784,-2.441,91.187,0.835,2.45,42.396,-6077,5092,-21614,33.17,,,,,,,,,,,,,,,
 22:02:00.926,COM13,,-0.073,0.063,0.979,-5.432,-3.418,91.797,0.884,2.357,44.231,-6220,4568,-22111,33.2,,,,,,,,,,,,,,,
 22:02:00.933,COM13,,-0.045,0.013,0.934,-5.371,0.366,91.98,0.934,2.247,46.071,-6265,3943,-22575,33.17,,,,,,,,,,,,,,,
 22:02:00.963,COM13,,-0.088,0.092,0.936,-5.676,5.127,93.689,0.983,2.208,47.917,-6470,3360,-23004,33.16,,,,,,,,,,,,,,,
 22:02:00.993,COM13,,-0.088,0.007,1.007,-6.958,7.507,95.52,1.016,2.258,49.801,-6612,2674,-23399,33.17,,,,,,,,,,,,,,,
 22:02:00.998,COM13,,-0.092,-0.02,1.051,-6.775,3.296,91.553,1.038,2.351,51.718,-6873,2062,-23767,33.18,,,,,,,,,,,,,,,
 22:02:01.027,COM13,,-0.115,-0.04,0.999,-6.165,1.587,88.562,1.06,2.362,53.558,-6905,1205,-24148,33.17,,,,,,,,,,,,,,,
 22:02:01.033,COM13,,-0.082,0.049,1.006,-0.732,0.671,89.294,1.187,2.346,55.338,-6962,391,-24420,33.12,,,,,,,,,,,,,,,
 22:02:01.061,COM13,,-0.094,0.097,1.012,-2.991,-0.488,90.393,1.28,2.307,57.129,-7066,-372,-24620,33.17,,,,,,,,,,,,,,,
 22:02:01.095,COM13,,-0.125,0.052,0.993,-5.615,-2.258,90.881,1.318,2.241,58.947,-6981,-1307,-24681,33.12,,,,,,,,,,,,,,,
 22:02:01.098,COM13,,-0.048,0.121,0.965,-7.019,-0.183,94.788,1.34,2.142,60.765,-7162,-2157,-24709,33.19,,,,,,,,,,,,,,,
 22:02:01.127,COM13,,-0.001,0.056,0.929,-9.338,3.174,94.666,1.324,2.076,62.666,-7184,-3051,-24634,33.13,,,,,,,,,,,,,,,
 22:02:01.133,COM13,,-0.106,-0.003,0.955,-10.376,8.179,94.299,1.28,2.071,64.572,-7307,-3969,-24534,33.17,,,,,,,,,,,,,,,
 22:02:01.161,COM13,,-0.141,-0.051,1.03,-6.042,8.423,93.323,1.318,2.17,66.467,-7335,-4894,-24391,33.19,,,,,,,,,,,,,,,
 22:02:01.193,COM13,,-0.1,0.046,1.083,-6.531,2.136,89.539,1.335,2.274,68.346,-7423,-5750,-24162,33.14,,,,,,,,,,,,,,,
 22:02:01.196,COM13,,-0.051,-0.004,1.043,-4.028,-3.845,90.149,1.395,2.258,70.142,-7399,-6728,-23782,33.19,,,,,,,,,,,,,,,
 22:02:01.226,COM13,,-0.121,0,0.916,-0.977,-1.343,88.379,1.511,2.12,71.949,-7376,-7560,-23302,33.17,,,,,,,,,,,,,,,
 22:02:01.231,COM13,,-0.058,0.101,0.974,-0.61,3.296,90.393,1.637,2.032,73.724,-7339,-8450,-22760,33.17,,,,,,,,,,,,,,,
 22:02:01.259,COM13,,-0.052,0.117,1.007,-7.019,2.808,90.698,1.648,2.032,75.536,-7405,-9098,-22229,33.17,,,,,,,,,,,,,,,
 22:02:01.294,COM13,,-0.09,-0.007,1.007,-5.798,1.587,92.041,1.681,2.016,77.36,-7334,-9956,-21486,33.12,,,,,,,,,,,,,,,
 22:02:01.297,COM13,,-0.068,0.127,0.935,-6.714,3.601,93.323,1.703,1.978,79.206,-7243,-10661,-20719,33.18,,,,,,,,,,,,,,,
 22:02:01.309,COM13,,-0.038,0.081,0.967,-11.108,7.08,93.933,1.642,1.972,81.079,-7218,-11268,-19953,33.17,,,,,,,,,,,,,,,
 22:02:01.341,COM13,,-0.125,-0.043,1.031,-8.606,7.08,93.384,1.631,2.032,82.969,-7166,-11852,-19079,33.18,,,,,,,,,,,,,,,
 22:02:01.376,COM13,,-0.109,-0.004,1.023,-6.165,3.479,91.125,1.653,2.098,84.847,-7106,-12383,-18218,33.15,,,,,,,,,,,,,,,
 22:02:01.380,COM13,,-0.084,-0.004,1.011,-6.287,0.732,87.524,1.664,2.098,86.677,-6949,-12869,-17225,33.17,,,,,,,,,,,,,,,
 22:02:01.407,COM13,,-0.106,-0.021,1.007,-3.54,0.061,86.426,1.714,2.043,88.434,-6732,-13242,-16133,33.17,,,,,,,,,,,,,,,
 22:02:01.411,COM13,,-0.071,0.042,1.055,2.747,-1.587,88.074,1.895,1.978,90.17,-6624,-13519,-15227,33.14,,,,,,,,,,,,,,,
 22:02:01.439,COM13,,-0.077,0.142,1.008,-0.854,-5.188,88.196,2.005,1.879,91.934,-6437,-13819,-14186,33.16,,,,,,,,,,,,,,,
 22:02:01.471,COM13,,-0.023,0.177,0.892,-7.019,-2.258,92.529,2.01,1.697,93.697,-6422,-13860,-13374,33.18,,,,,,,,,,,,,,,
 22:02:01.476,COM13,,-0.036,0.076,0.869,-11.841,6.226,93.628,1.928,1.571,95.548,-6138,-13956,-12259,33.2,,,,,,,,,,,,,,,
 22:02:01.505,COM13,,-0.072,-0.002,0.984,-12.146,13.489,94.91,1.84,1.609,97.432,-5989,-13942,-11245,33.17,,,,,,,,,,,,,,,
 22:02:01.512,COM13,,-0.12,0.002,1.104,-7.507,9.277,93.811,1.84,1.791,99.344,-5828,-13887,-10282,33.17,,,,,,,,,,,,,,,
 22:02:01.567,COM13,,-0.109,0.013,1.082,-5.615,0,92.285,1.873,1.89,101.234,-5638,-13768,-9402,33.16,,,,,,,,,,,,,,,
 22:02:01.573,COM13,,-0.098,-0.03,1.009,-4.578,-4.211,89.294,1.906,1.813,103.085,-5537,-13611,-8531,33.17,,,,,,,,,,,,,,,
 22:02:01.576,COM13,,-0.093,0.028,0.92,-1.953,-1.709,87.769,1.983,1.653,104.87,-5292,-13386,-7618,33.17,,,,,,,,,,,,,,,
 22:02:01.603,COM13,,-0.01,0.113,1.037,-3.296,-0.732,89.05,2.038,1.549,106.628,-5168,-13150,-6868,33.15,,,,,,,,,,,,,,,
 22:02:01.636,COM13,,-0.069,0.114,0.932,-5.798,0.305,91.492,2.054,1.456,108.413,-4915,-12840,-6083,33.16,,,,,,,,,,,,,,,
 22:02:01.640,COM13,,-0.063,0.031,0.97,-9.338,4.272,90.332,2,1.379,110.242,-4777,-12532,-5368,33.14,,,,,,,,,,,,,,,
 22:02:01.669,COM13,,-0.088,0.015,1.026,-8.545,5.859,91.614,1.989,1.379,112.055,-4628,-12130,-4803,33.17,,,,,,,,,,,,,,,
 22:02:01.673,COM13,,-0.105,-0.019,1.026,-5.493,2.319,88.196,1.967,1.417,113.912,-4492,-11774,-4204,33.14,,,,,,,,,,,,,,,
 22:02:01.702,COM13,,-0.079,0.085,1.029,-3.967,1.465,90.454,1.983,1.434,115.735,-4298,-11397,-3628,33.17,,,,,,,,,,,,,,,
 22:02:01.734,COM13,,-0.063,0.023,1.036,-5.066,-3.296,89.6,2.016,1.401,117.515,-4155,-11050,-3114,33.19,,,,,,,,,,,,,,,
 22:02:01.738,COM13,,-0.048,0.074,0.946,-4.7,-3.235,89.417,2.032,1.324,119.323,-4054,-10616,-2656,33.2,,,,,,,,,,,,,,,
 22:02:01.768,COM13,,-0.033,0.046,0.936,-6.042,2.441,90.698,2.049,1.181,121.113,-3836,-10161,-2206,33.15,,,,,,,,,,,,,,,
 22:02:01.771,COM13,,-0.061,0.072,0.916,-6.042,8.118,90.698,2.043,1.066,122.91,-3755,-9754,-1876,33.12,,,,,,,,,,,,,,,
 22:02:01.801,COM13,,-0.062,0.039,1.096,-6.897,6.958,90.454,2.038,1.055,124.728,-3568,-9343,-1501,33.15,,,,,,,,,,,,,,,
 22:02:01.817,COM13,,-0.096,0.068,1.046,-7.69,0.122,91.187,2.016,1.126,126.552,-3443,-8920,-1250,33.17,,,,,,,,,,,,,,,
 22:02:01.852,COM13,,-0.123,0,0.979,-5.676,-0.854,91.003,1.994,1.143,128.37,-3366,-8549,-996,33.17,,,,,,,,,,,,,,,
 22:02:01.855,COM13,,-0.021,0.025,1.021,-4.517,-1.587,89.722,2,1.06,130.193,-3193,-8195,-742,33.19,,,,,,,,,,,,,,,
 22:02:01.883,COM13,,-0.014,0.099,0.955,-5.127,-0.366,91.797,2.01,0.967,132.012,-3145,-7843,-571,33.16,,,,,,,,,,,,,,,
 22:02:01.913,COM13,,-0.081,0.061,0.968,-6.287,1.892,91.37,2.016,0.862,133.819,-3076,-7473,-467,33.16,,,,,,,,,,,,,,,
 22:02:01.918,COM13,,-0.014,0.025,0.952,-5.981,5.676,92.163,2,0.78,135.654,-2939,-7060,-305,33.17,,,,,,,,,,,,,,,
 22:02:01.947,COM13,,-0.09,0.074,1.005,-6.714,6.775,92.59,1.989,0.753,137.488,-2963,-6725,-276,33.16,,,,,,,,,,,,,,,
 22:02:01.957,COM13,,-0.09,0.048,1.076,-7.324,1.77,92.468,1.967,0.786,139.34,-2938,-6380,-200,33.16,,,,,,,,,,,,,,,
 22:02:01.989,COM13,,-0.057,0.019,1.002,-6.165,-1.709,92.957,1.939,0.813,141.202,-2861,-6074,-129,33.17,,,,,,,,,,,,,,,
 22:02:01.992,COM13,,-0.033,0.036,0.957,-5.188,0.183,93.018,1.928,0.747,143.053,-2819,-5729,-109,33.17,,,,,,,,,,,,,,,
 22:02:02.034,COM13,,-0.066,0.046,0.987,-5.432,2.075,91.736,1.928,0.643,144.915,-2775,-5451,-101,33.17,,,,,,,,,,,,,,,
 22:02:02.038,COM13,,-0.047,0.049,0.975,-6.775,3.54,91.919,1.912,0.577,146.772,-2720,-5189,-106,33.17,,,,,,,,,,,,,,,
 22:02:02.094,COM13,,-0.049,-0.004,1.017,-5.737,3.723,90.21,1.884,0.544,148.612,-2762,-4898,-128,33.15,,,,,,,,,,,,,,,
 22:02:02.096,COM13,,-0.057,0.093,1.002,-5.432,2.563,92.651,1.862,0.538,150.447,-2752,-4613,-117,33.18,,,,,,,,,,,,,,,
 22:02:02.099,COM13,,-0.089,0.016,1.02,-6.653,-0.183,90.271,1.851,0.527,152.265,-2707,-4349,-188,33.15,,,,,,,,,,,,,,,
 22:02:02.128,COM13,,-0.032,-0.009,0.998,-4.7,-0.183,89.905,1.818,0.489,154.111,-2710,-4124,-220,33.17,,,,,,,,,,,,,,,
 22:02:02.132,COM13,,-0.033,0.079,0.968,-5.615,1.404,90.759,1.807,0.412,155.918,-2618,-3865,-253,33.18,,,,,,,,,,,,,,,
 22:02:02.161,COM13,,-0.072,0.074,0.976,-5.981,2.686,89.6,1.785,0.341,157.72,-2723,-3657,-326,33.17,,,,,,,,,,,,,,,
 22:02:02.192,COM13,,-0.002,-0.038,1.017,-5.798,2.625,91.37,1.758,0.297,159.532,-2650,-3382,-339,33.18,,,,,,,,,,,,,,,
 22:02:02.197,COM13,,-0.098,0.133,0.984,-6.165,1.953,91.431,1.73,0.28,161.334,-2651,-3200,-417,33.19,,,,,,,,,,,,,,,
 22:02:02.226,COM13,,-0.049,0.048,0.985,-7.019,2.93,92.529,1.697,0.253,163.169,-2682,-3041,-514,33.17,,,,,,,,,,,,,,,
 22:02:02.231,COM13,,-0.034,-0.062,1.071,-6.47,-0.183,90.393,1.653,0.22,165.004,-2695,-2875,-619,33.17,,,,,,,,,,,,,,,
 22:02:02.260,COM13,,-0.059,0.114,0.928,-4.639,1.648,92.834,1.615,0.192,166.849,-2673,-2691,-690,33.13,,,,,,,,,,,,,,,
 22:02:02.292,COM13,,-0.073,-0.019,1.062,-5.981,-0.183,88.684,1.604,0.132,168.668,-2713,-2607,-776,33.17,,,,,,,,,,,,,,,
 22:02:02.297,COM13,,-0.011,0.025,0.981,-5.615,-2.197,91.797,1.566,0.082,170.508,-2753,-2451,-835,33.17,,,,,,,,,,,,,,,
 22:02:02.325,COM13,,-0.064,0.049,0.967,-5.493,1.526,89.539,1.533,0.005,172.299,-2778,-2244,-930,33.16,,,,,,,,,,,,,,,
 22:02:02.357,COM13,,-0.005,0.049,0.945,-7.324,3.418,87.83,1.489,-0.088,174.122,-2829,-2116,-1032,33.16,,,,,,,,,,,,,,,
 22:02:02.361,COM13,,-0.048,0,1.053,-4.883,4.883,92.346,1.434,-0.11,175.908,-2798,-1919,-1082,33.14,,,,,,,,,,,,,,,
 22:02:02.390,COM13,,-0.076,0.121,1.013,-7.385,-1.953,88.806,1.401,-0.099,177.687,-2837,-1825,-1161,33.18,,,,,,,,,,,,,,,
 22:02:02.395,COM13,,-0.068,-0.037,0.996,-5.249,0.549,92.285,1.346,-0.099,179.522,-2889,-1668,-1206,33.17,,,,,,,,,,,,,,,
 22:02:02.425,COM13,,-0.013,0.089,1.03,-6.47,-3.296,92.834,1.313,-0.187,-178.676,-2887,-1587,-1285,33.17,,,,,,,,,,,,,,,
 22:02:02.431,COM13,,-0.023,0.058,0.915,-2.686,1.16,95.764,1.28,-0.253,-176.83,-2955,-1520,-1417,33.19,,,,,,,,,,,,,,,
 22:02:02.462,COM13,,-0.004,-0.095,0.972,-6.104,3.601,90.271,1.291,-0.352,-174.957,-3038,-1348,-1529,33.16,,,,,,,,,,,,,,,
 22:02:02.494,COM13,,-0.033,0.104,0.927,-4.761,9.155,92.59,1.236,-0.379,-173.068,-3067,-1207,-1585,33.15,,,,,,,,,,,,,,,
 22:02:02.499,COM13,,-0.103,0.049,1.124,-6.592,6.653,91.431,1.208,-0.346,-171.244,-3109,-1048,-1682,33.17,,,,,,,,,,,,,,,
 22:02:02.529,COM13,,-0.055,0.01,1.042,-8.606,-1.221,92.651,1.148,-0.236,-169.393,-3170,-909,-1760,33.16,,,,,,,,,,,,,,,
 22:02:02.532,COM13,,-0.097,0.062,1.014,-4.15,-3.906,94.666,1.077,-0.198,-167.552,-3205,-806,-1846,33.17,,,,,,,,,,,,,,,
 22:02:02.560,COM13,,-0.015,0.011,0.978,-5.249,-4.761,94.055,1.066,-0.291,-165.69,-3297,-722,-1937,33.2,,,,,,,,,,,,,,,
 22:02:02.592,COM13,,0.013,-0.018,0.965,-5.615,-1.16,93.628,1.027,-0.417,-163.801,-3354,-580,-2016,33.2,,,,,,,,,,,,,,,
 22:02:02.597,COM13,,0.012,0.015,0.87,-6.165,4.15,90.088,0.978,-0.544,-161.927,-3381,-480,-2104,33.17,,,,,,,,,,,,,,,
 22:02:02.626,COM13,,-0.071,0.029,1.002,-8.118,11.78,89.539,0.906,-0.588,-160.071,-3392,-401,-2166,33.17,,,,,,,,,,,,,,,
 22:02:02.632,COM13,,-0.057,0.066,1.086,-7.019,4.272,90.82,0.813,-0.522,-158.264,-3422,-272,-2217,33.19,,,,,,,,,,,,,,,
 22:02:02.693,COM13,,-0.087,0.081,1.062,-6.348,-0.122,97.107,0.753,-0.374,-156.462,-3373,-193,-2287,33.18,,,,,,,,,,,,,,,
 22:02:02.695,COM13,,-0.055,0.053,0.998,-0.793,-3.845,98.755,0.742,-0.352,-154.611,-3487,-129,-2394,33.19,,,,,,,,,,,,,,,
 22:02:02.698,COM13,,-0.035,-0.007,0.923,-5.92,-0.671,99.67,0.786,-0.417,-152.661,-3589,-12,-2439,33.14,,,,,,,,,,,,,,,
 22:02:02.728,COM13,,0.044,-0.016,0.961,-8.85,3.723,96.558,0.725,-0.516,-150.683,-3674,53,-2531,33.17,,,,,,,,,,,,,,,
 22:02:02.784,COM13,,-0.047,-0.072,0.946,-5.432,8.24,91.797,0.637,-0.549,-148.7,-3665,199,-2562,33.18,,,,,,,,,,,,,,,
 22:02:02.787,COM13,,-0.108,0.036,1.083,-5.737,6.47,93.506,0.588,-0.5,-146.788,-3594,354,-2623,33.18,,,,,,,,,,,,,,,
 22:02:02.790,COM13,,-0.012,0.01,1.021,-6.714,1.465,88.684,0.533,-0.385,-144.943,-3657,434,-2718,33.2,,,,,,,,,,,,,,,
 22:02:02.795,COM13,,-0.132,-0.039,1.052,-6.592,-1.892,88.562,0.467,-0.319,-143.091,-3678,557,-2769,33.17,,,,,,,,,,,,,,,
 22:02:02.822,COM13,,-0.021,0.102,0.975,-7.08,-3.296,90.088,0.39,-0.341,-141.317,-3701,729,-2830,33.17,,,,,,,,,,,,,,,
 22:02:02.844,COM13,,-0.025,-0.007,1.001,-8.972,-2.075,88.867,0.302,-0.417,-139.532,-3710,822,-2900,33.17,,,,,,,,,,,,,,,
 22:02:02.873,COM13,,0.01,0.017,0.945,-5.371,-1.404,93.933,0.225,-0.494,-137.741,-3788,865,-2975,33.17,,,,,,,,,,,,,,,
 22:02:02.877,COM13,,-0.014,0.037,0.953,-5.859,3.845,92.285,0.181,-0.555,-135.912,-3835,958,-3016,33.17,,,,,,,,,,,,,,,
 22:02:02.907,COM13,,-0.058,-0.021,0.977,-5.371,6.165,93.14,0.137,-0.56,-134.044,-3797,1046,-3042,33.17,,,,,,,,,,,,,,,
 22:02:02.914,COM13,,-0.043,0.029,0.992,-5.554,7.629,93.567,0.099,-0.489,-132.188,-3826,1230,-3086,33.19,,,,,,,,,,,,,,,
 22:02:02.947,COM13,,-0.077,0.006,1.077,-6.042,4.395,93.14,0.06,-0.379,-130.32,-3870,1351,-3156,33.2,,,,,,,,,,,,,,,
 22:02:02.977,COM13,,-0.076,0.027,1.033,-6.592,-1.221,93.14,0.011,-0.28,-128.447,-3914,1375,-3205,33.19,,,,,,,,,,,,,,,
 22:02:02.980,COM13,,-0.055,-0.058,1.004,-6.47,-2.991,91.614,-0.044,-0.269,-126.584,-3932,1485,-3257,33.18,,,,,,,,,,,,,,,
 22:02:03.012,COM13,,-0.039,-0.038,0.984,-5.798,-2.258,89.478,-0.099,-0.324,-124.733,-3893,1542,-3284,33.2,,,,,,,,,,,,,,,
 22:02:03.015,COM13,,-0.022,0.023,0.975,-6.287,-1.038,87.402,-0.165,-0.39,-122.921,-3872,1715,-3315,33.2,,,,,,,,,,,,,,,
 22:02:03.043,COM13,,-0.004,0.039,0.94,-3.113,1.892,91.553,-0.192,-0.434,-121.152,-3848,1790,-3352,33.2,,,,,,,,,,,,,,,
 22:02:03.075,COM13,,0.001,0.051,0.957,-6.531,6.287,93.262,-0.22,-0.434,-119.361,-3971,1861,-3426,33.2,,,,,,,,,,,,,,,
 22:02:03.082,COM13,,-0.089,-0.032,1.054,-6.47,5.554,92.163,-0.269,-0.368,-117.51,-3901,1976,-3464,33.17,,,,,,,,,,,,,,,
 22:02:03.112,COM13,,-0.071,-0.051,1.002,-5.493,2.625,90.942,-0.313,-0.269,-115.653,-3855,2041,-3501,33.17,,,,,,,,,,,,,,,
 22:02:03.116,COM13,,-0.04,-0.021,1.005,-4.456,2.563,87.219,-0.346,-0.198,-113.818,-3877,2153,-3549,33.17,,,,,,,,,,,,,,,
 22:02:03.145,COM13,,-0.048,0.046,1.021,-4.822,0.854,89.05,-0.368,-0.154,-112.039,-3825,2275,-3565,33.2,,,,,,,,,,,,,,,
 22:02:03.175,COM13,,-0.078,0.022,1.038,-5.432,-1.465,89.05,-0.396,-0.126,-110.27,-3840,2374,-3591,33.17,,,,,,,,,,,,,,,
 22:02:03.182,COM13,,-0.009,-0.061,0.94,-7.69,-1.038,87.708,-0.456,-0.137,-108.49,-3837,2516,-3631,33.2,,,,,,,,,,,,,,,
 22:02:03.214,COM13,,-0.051,-0.042,0.973,-3.113,2.014,87.463,-0.494,-0.165,-106.721,-3831,2662,-3664,33.18,,,,,,,,,,,,,,,
 22:02:03.217,COM13,,-0.029,0.053,0.982,-6.287,3.967,87.341,-0.522,-0.159,-104.963,-3825,2817,-3702,33.2,,,,,,,,,,,,,,,
 22:02:03.245,COM13,,-0.041,-0.041,1.019,-4.15,3.845,85.815,-0.555,-0.104,-103.217,-3816,2920,-3734,33.16,,,,,,,,,,,,,,,
 22:02:03.277,COM13,,-0.04,0.013,1.037,-3.723,0.488,87.463,-0.56,-0.027,-101.481,-3765,3081,-3785,33.17,,,,,,,,,,,,,,,
 22:02:03.280,COM13,,-0.103,-0.043,0.995,-5.676,-0.488,84.656,-0.582,0.005,-99.745,-3725,3158,-3832,33.18,,,,,,,,,,,,,,,
 22:02:03.310,COM13,,-0.046,0.005,0.996,-4.639,0.671,83.252,-0.615,0.005,-98.02,-3685,3219,-3856,33.18,,,,,,,,,,,,,,,
 22:02:03.313,COM13,,0.016,0.038,0.954,-6.104,1.77,85.083,-0.648,0.011,-96.339,-3654,3349,-3893,33.2,,,,,,,,,,,,,,,
 22:02:03.340,COM13,,-0.042,-0.019,1.028,-4.089,1.404,87.83,-0.665,0.033,-94.658,-3615,3383,-3920,33.17,,,,,,,,,,,,,,,
 22:02:03.371,COM13,,-0.125,-0.016,0.979,-5.981,1.404,84.106,-0.692,0.06,-92.922,-3646,3487,-3953,33.17,,,,,,,,,,,,,,,
 22:02:03.374,COM13,,0.001,0.014,1.016,-4.7,0.793,86.121,-0.72,0.088,-91.203,-3556,3584,-3981,33.19,,,,,,,,,,,,,,,
 22:02:03.404,COM13,,-0.033,-0.019,0.992,-4.333,0.916,86.426,-0.731,0.115,-89.5,-3606,3700,-4015,33.2,,,,,,,,,,,,,,,
 22:02:03.434,COM13,,-0.11,0.064,0.978,-7.385,1.892,85.754,-0.764,0.132,-87.77,-3572,3824,-4058,33.18,,,,,,,,,,,,,,,
 22:02:03.440,COM13,,0,-0.05,1.015,-5.066,2.197,86.975,-0.797,0.165,-86.045,-3565,3883,-4093,33.17,,,,,,,,,,,,,,,
 22:02:03.470,COM13,,-0.071,0.018,1.017,-5.554,-0.244,87.158,-0.818,0.209,-84.315,-3608,4024,-4126,33.24,,,,,,,,,,,,,,,
 22:02:03.473,COM13,,-0.083,-0.018,0.967,-4.15,0.305,87.585,-0.829,0.236,-82.573,-3539,4135,-4172,33.19,,,,,,,,,,,,,,,
 22:02:03.502,COM13,,-0.004,0.042,0.991,-6.714,2.563,87.036,-0.846,0.242,-80.821,-3605,4209,-4221,33.17,,,,,,,,,,,,,,,
 22:02:03.533,COM13,,-0.047,-0.023,1.01,-4.333,2.258,91.309,-0.862,0.28,-79.074,-3526,4315,-4267,33.18,,,,,,,,,,,,,,,
 22:02:03.539,COM13,,-0.134,0.024,0.987,-5.981,1.099,87.646,-0.868,0.33,-77.289,-3540,4467,-4299,33.17,,,,,,,,,,,,,,,
 22:02:03.569,COM13,,0.01,0.023,1.011,-6.348,1.526,90.82,-0.895,0.368,-75.498,-3512,4594,-4360,33.15,,,,,,,,,,,,,,,
 22:02:03.572,COM13,,-0.063,-0.039,0.982,-5.188,0.793,91.125,-0.906,0.406,-73.707,-3508,4647,-4422,33.19,,,,,,,,,,,,,,,
 22:02:03.600,COM13,,-0.104,0.032,0.993,-9.46,2.991,89.111,-0.95,0.439,-71.889,-3470,4720,-4474,33.21,,,,,,,,,,,,,,,
 22:02:03.659,COM13,,-0.026,-0.042,1,-4.089,1.282,92.651,-0.983,0.483,-70.082,-3391,4853,-4534,33.2,,,,,,,,,,,,,,,
 22:02:03.665,COM13,,-0.057,0.058,0.997,-7.507,1.038,91.98,-0.994,0.538,-68.264,-3402,4956,-4595,33.15,,,,,,,,,,,,,,,
 22:02:03.668,COM13,,-0.096,-0.036,0.984,-6.47,2.563,93.018,-1.022,0.577,-66.412,-3359,5096,-4663,33.19,,,,,,,,,,,,,,,
 22:02:03.698,COM13,,-0.031,-0.001,1.009,-7.568,1.77,91.064,-1.055,0.621,-64.561,-3352,5216,-4728,33.2,,,,,,,,,,,,,,,
 22:02:03.701,COM13,,-0.066,0.015,0.967,-4.761,3.052,95.642,-1.066,0.681,-62.715,-3268,5353,-4790,33.2,,,,,,,,,,,,,,,
 22:02:03.731,COM13,,-0.092,-0.032,1.021,-7.141,2.075,91.125,-1.066,0.742,-60.842,-3271,5433,-4848,33.18,,,,,,,,,,,,,,,
 22:02:03.735,COM13,,-0.067,0.008,1.005,-5.554,1.404,94.055,-1.082,0.807,-58.975,-3242,5497,-4919,33.15,,,,,,,,,,,,,,,
 22:02:03.766,COM13,,-0.084,0,0.992,-5.188,1.221,95.276,-1.066,0.862,-57.118,-3245,5632,-4990,33.19,,,,,,,,,,,,,,,
 22:02:03.798,COM13,,-0.038,0.001,1,-7.69,0.977,93.994,-1.077,0.906,-55.223,-3206,5695,-5069,33.2,,,,,,,,,,,,,,,
 22:02:03.801,COM13,,-0.098,0,0.964,-6.836,1.648,94.36,-1.099,0.945,-53.328,-3226,5800,-5146,33.14,,,,,,,,,,,,,,,
 22:02:03.829,COM13,,-0.083,0.005,1.001,-6.409,3.357,96.375,-1.104,0.989,-51.438,-3232,5901,-5233,33.19,,,,,,,,,,,,,,,
 22:02:03.834,COM13,,-0.05,0.001,1.013,-6.531,2.136,96.863,-1.104,1.055,-49.526,-3223,5939,-5337,33.2,,,,,,,,,,,,,,,
 22:02:03.859,COM13,,-0.085,-0.024,0.99,-7.202,1.404,95.093,-1.11,1.132,-47.593,-3211,6030,-5404,33.2,,,,,,,,,,,,,,,
 22:02:03.887,COM13,,-0.105,0.021,0.982,-4.944,2.136,98.694,-1.099,1.187,-45.665,-3182,6127,-5483,33.18,,,,,,,,,,,,,,,
 22:02:03.893,COM13,,-0.079,-0.009,1.015,-6.409,1.648,97.839,-1.077,1.241,-43.726,-3182,6174,-5564,33.19,,,,,,,,,,,,,,,
 22:02:03.929,COM13,,-0.045,0.011,1.008,-7.202,0.244,97.778,-1.071,1.302,-41.754,-3195,6336,-5648,33.18,,,,,,,,,,,,,,,
 22:02:03.936,COM13,,-0.118,-0.038,0.958,-7.935,1.038,96.497,-1.088,1.34,-39.792,-3130,6478,-5773,33.17,,,,,,,,,,,,,,,
 22:02:03.964,COM13,,-0.063,-0.026,0.98,-6.958,3.418,96.68,-1.099,1.368,-37.848,-3089,6621,-5884,33.14,,,,,,,,,,,,,,,
 22:02:03.997,COM13,,-0.089,-0.019,1.013,-6.348,3.052,95.581,-1.099,1.434,-35.909,-3106,6691,-6003,33.17,,,,,,,,,,,,,,,
 22:02:04.001,COM13,,-0.091,-0.059,1.029,-6.836,0.61,93.506,-1.099,1.522,-33.981,-3124,6838,-6134,33.16,,,,,,,,,,,,,,,
 22:02:04.031,COM13,,-0.099,-0.02,0.983,-3.54,-0.061,93.628,-1.06,1.566,-32.097,-3077,6914,-6293,33.19,,,,,,,,,,,,,,,
 22:02:04.035,COM13,,-0.046,-0.02,0.98,-5.127,1.038,90.454,-1.027,1.588,-30.218,-3073,6998,-6444,33.17,,,,,,,,,,,,,,,
 22:02:04.064,COM13,,-0.094,-0.04,1.001,-3.662,1.648,90.332,-0.983,1.62,-28.389,-3063,7131,-6611,33.18,,,,,,,,,,,,,,,
 22:02:04.119,COM13,,-0.082,-0.005,1.007,-4.333,0.183,88.745,-0.95,1.664,-26.576,-3081,7197,-6746,33.18,,,,,,,,,,,,,,,
 22:02:04.126,COM13,,-0.075,-0.02,0.994,-5.005,-0.061,87.585,-0.923,1.692,-24.785,-3013,7370,-6922,33.2,,,,,,,,,,,,,,,
 22:02:04.128,COM13,,-0.085,0.018,0.979,-0.244,1.587,89.6,-0.829,1.703,-23.022,-2982,7452,-7110,33.19,,,,,,,,,,,,,,,
 22:02:04.154,COM13,,-0.074,0.08,1.024,-7.324,0.244,91.003,-0.802,1.736,-21.237,-3137,7503,-7246,33.18,,,,,,,,,,,,,,,
 22:02:04.160,COM13,,-0.081,-0.022,0.976,-4.822,-0.244,91.248,-0.769,1.758,-19.418,-3024,7631,-7494,33.2,,,,,,,,,,,,,,,
 22:02:04.189,COM13,,-0.055,0.021,0.969,-7.751,1.526,92.957,-0.769,1.763,-17.589,-3092,7723,-7654,33.15,,,,,,,,,,,,,,,
 22:02:04.194,COM13,,-0.115,0.022,0.962,-5.493,4.333,93.506,-0.742,1.791,-15.732,-3045,7894,-7888,33.21,,,,,,,,,,,,,,,
 22:02:04.224,COM13,,-0.082,-0.031,1.028,-6.592,4.028,93.567,-0.714,1.868,-13.859,-3190,8001,-8043,33.21,,,,,,,,,,,,,,,
 22:02:04.255,COM13,,-0.078,-0.007,1.005,-5.432,2.747,92.529,-0.681,1.956,-11.981,-3182,8023,-8300,33.2,,,,,,,,,,,,,,,
 22:02:04.259,COM13,,-0.122,0,1.02,-5.005,0.977,92.163,-0.637,2.016,-10.118,-3205,8150,-8552,33.15,,,,,,,,,,,,,,,
 22:02:04.288,COM13,,-0.103,0.028,0.975,-4.7,0.366,93.75,-0.582,2.049,-8.267,-3272,8249,-8799,33.2,,,,,,,,,,,,,,,
 22:02:04.294,COM13,,-0.053,-0.014,1.036,-6.226,-1.282,92.041,-0.549,2.065,-6.394,-3320,8286,-9061,33.2,,,,,,,,,,,,,,,
 22:02:04.326,COM13,,-0.105,-0.035,0.959,-5.371,-1.221,91.553,-0.516,2.049,-4.537,-3362,8292,-9352,33.2,,,,,,,,,,,,,,,
 22:02:04.356,COM13,,-0.032,-0.002,0.965,-4.883,1.892,89.722,-0.472,2.021,-2.697,-3463,8447,-9642,33.22,,,,,,,,,,,,,,,
 22:02:04.363,COM13,,-0.109,0.014,0.957,-3.784,4.883,90.515,-0.412,2.043,-0.89,-3434,8527,-9977,33.15,,,,,,,,,,,,,,,
 22:02:04.387,COM13,,-0.114,0.077,1.052,-4.456,4.639,93.445,-0.346,2.12,0.917,-3473,8570,-10318,33.21,,,,,,,,,,,,,,,
 22:02:04.418,COM13,,-0.083,0.061,1.015,-7.385,-0.916,94.482,-0.313,2.208,2.78,-3531,8576,-10664,33.2,,,,,,,,,,,,,,,
 22:02:04.421,COM13,,-0.108,-0.008,0.977,-7.263,0.366,96.375,-0.286,2.208,4.675,-3586,8568,-11009,33.17,,,,,,,,,,,,,,,
 22:02:04.465,COM13,,-0.077,-0.022,0.986,-5.615,1.526,95.581,-0.242,2.203,6.597,-3800,8557,-11330,33.18,,,,,,,,,,,,,,,
 22:02:04.468,COM13,,-0.106,-0.002,0.963,-5.798,3.174,93.445,-0.198,2.219,8.52,-3837,8554,-11770,33.2,,,,,,,,,,,,,,,
 22:02:04.496,COM13,,-0.076,-0.036,1.024,-5.615,2.991,92.224,-0.159,2.263,10.41,-3857,8551,-12250,33.19,,,,,,,,,,,,,,,
 22:02:04.499,COM13,,-0.088,-0.021,1.036,-4.639,-0.183,89.905,-0.104,2.313,12.266,-3996,8551,-12719,33.2,,,,,,,,,,,,,,,
 22:02:04.529,COM13,,-0.092,-0.04,0.956,-5.127,0.427,86.426,-0.071,2.313,14.084,-4088,8586,-13229,33.2,,,,,,,,,,,,,,,
 22:02:04.535,COM13,,-0.099,-0.019,0.996,-1.465,2.319,85.327,0.016,2.302,15.837,-4161,8623,-13703,33.22,,,,,,,,,,,,,,,
 22:02:04.568,COM13,,-0.093,0.182,1.034,-3.174,0.305,90.942,0.104,2.324,17.556,-4310,8653,-14105,33.2,,,,,,,,,,,,,,,
 22:02:04.599,COM13,,-0.048,0.064,0.977,-8.667,-1.465,92.224,0.126,2.324,19.352,-4444,8619,-14586,33.17,,,,,,,,,,,,,,,
 22:02:04.602,COM13,,-0.108,-0.04,0.938,-5.249,1.831,94.055,0.17,2.28,21.198,-4410,8438,-15153,33.2,,,,,,,,,,,,,,,
 22:02:04.631,COM13,,-0.103,0.081,0.97,-6.348,5.981,95.886,0.22,2.274,23.077,-4519,8342,-15622,33.18,,,,,,,,,,,,,,,
 22:02:04.637,COM13,,-0.058,-0.016,1.052,-6.531,4.517,93.567,0.264,2.346,24.994,-4651,8227,-16156,33.2,,,,,,,,,,,,,,,
 22:02:04.668,COM13,,-0.118,-0.093,1.008,-4.944,0,91.309,0.313,2.417,26.889,-4808,8025,-16738,33.21,,,,,,,,,,,,,,,
 22:02:04.699,COM13,,-0.117,0.044,0.985,-4.211,0.793,88.745,0.374,2.411,28.729,-4962,7853,-17310,33.17,,,,,,,,,,,,,,,
 22:02:04.702,COM13,,-0.084,0.062,0.987,-4.028,1.831,90.332,0.445,2.395,30.526,-5116,7586,-17873,33.19,,,,,,,,,,,,,,,
 22:02:04.731,COM13,,-0.065,0.01,1.031,-5.798,-0.427,90.576,0.494,2.395,32.333,-5244,7311,-18420,33.2,,,,,,,,,,,,,,,
 22:02:04.735,COM13,,-0.088,0.032,0.979,-4.333,-0.732,90.637,0.555,2.368,34.151,-5346,7007,-19012,33.2,,,,,,,,,,,,,,,
 22:02:04.765,COM13,,-0.089,0.072,0.931,-4.7,2.991,92.468,0.621,2.318,35.969,-5439,6637,-19599,33.17,,,,,,,,,,,,,,,
 22:02:04.798,COM13,,-0.104,0.052,0.992,-8.545,5.615,93.323,0.637,2.324,37.815,-5673,6350,-20131,33.21,,,,,,,,,,,,,,,
 22:02:04.801,COM13,,-0.049,-0.067,1.058,-5.798,2.319,92.59,0.67,2.384,39.688,-5748,5864,-20718,33.2,,,,,,,,,,,,,,,
 22:02:04.830,COM13,,-0.109,0.008,0.996,-4.944,-0.061,87.952,0.714,2.406,41.55,-5917,5400,-21282,33.17,,,,,,,,,,,,,,,
 22:02:04.834,COM13,,-0.14,0.068,0.944,-1.343,2.197,91.431,0.824,2.373,43.341,-5984,4901,-21823,33.2,,,,,,,,,,,,,,,
 22:02:04.864,COM13,,-0.032,0.065,1.037,-7.629,2.014,93.14,0.862,2.362,45.159,-6325,4418,-22290,33.18,,,,,,,,,,,,,,,
 22:02:04.897,COM13,,-0.114,-0.006,1.013,-5.981,-0.427,88.745,0.895,2.362,47.021,-6378,3811,-22794,33.18,,,,,,,,,,,,,,,
 22:02:04.900,COM13,,-0.098,0.083,0.941,-6.409,1.038,92.773,0.923,2.318,48.829,-6504,3223,-23228,33.2,,,,,,,,,,,,,,,
 22:02:04.934,COM13,,-0.038,0.003,1,-6.531,2.808,92.041,0.956,2.285,50.669,-6663,2564,-23599,33.21,,,,,,,,,,,,,,,
 22:02:04.943,COM13,,-0.117,-0.082,0.994,-5.493,2.014,87.708,0.989,2.285,52.52,-6799,1841,-23932,33.17,,,,,,,,,,,,,,,
 22:02:04.975,COM13,,-0.08,0.082,0.989,-1.953,2.93,89.05,1.071,2.28,54.305,-6841,996,-24254,33.14,,,,,,,,,,,,,,,
 22:02:04.979,COM13,,-0.029,0.08,1.012,-1.77,2.563,91.431,1.187,2.285,56.085,-6931,183,-24480,33.19,,,,,,,,,,,,,,,
 22:02:05.005,COM13,,-0.166,0.039,0.992,-7.813,1.282,89.783,1.214,2.28,57.909,-7134,-590,-24662,33.17,,,,,,,,,,,,,,,
 22:02:05.036,COM13,,-0.13,0.075,0.987,-5.493,1.831,92.468,1.252,2.252,59.722,-7063,-1566,-24769,33.22,,,,,,,,,,,,,,,
 22:02:05.042,COM13,,0.006,0.123,1.034,-7.202,0.183,95.947,1.285,2.23,61.567,-7164,-2475,-24778,33.21,,,,,,,,,,,,,,,
 22:02:05.071,COM13,,-0.096,-0.026,0.945,-8.423,0.549,94.238,1.291,2.186,63.474,-7251,-3362,-24745,33.2,,,,,,,,,,,,,,,
 22:02:05.075,COM13,,-0.15,-0.02,0.938,-7.324,5.188,92.712,1.296,2.131,65.374,-7490,-4160,-24645,33.2,,,,,,,,,,,,,,,
 22:02:05.106,COM13,,-0.031,0.067,1.055,-7.08,4.944,91.797,1.307,2.153,67.242,-7422,-5132,-24433,33.15,,,,,,,,,,,,,,,
 22:02:05.115,COM13,,-0.066,0,1.033,-5.432,0,92.407,1.346,2.192,69.093,-7504,-5978,-24131,33.17,,,,,,,,,,,,,,,
 22:02:05.144,COM13,,-0.133,-0.02,0.955,-5.676,-0.183,89.111,1.373,2.153,70.944,-7474,-6854,-23746,33.16,,,,,,,,,,,,,,,
 22:02:05.175,COM13,,-0.064,-0.034,1.005,-3.052,2.197,86.121,1.428,2.087,72.751,-7377,-7817,-23189,33.2,,,,,,,,,,,,,,,
 22:02:05.179,COM13,,-0.032,0.135,0.992,0.977,2.441,89.539,1.588,2.065,74.493,-7435,-8613,-22693,33.2,,,,,,,,,,,,,,,
 22:02:05.208,COM13,,-0.124,0.082,1.013,-4.822,0.183,90.942,1.637,2.043,76.289,-7477,-9324,-22063,33.2,,,,,,,,,,,,,,,
 22:02:05.216,COM13,,-0.081,0.113,0.931,-7.263,2.136,90.881,1.648,1.978,78.113,-7267,-10164,-21246,33.2,,,,,,,,,,,,,,,
 22:02:05.246,COM13,,-0.032,0.066,0.983,-8.667,6.287,94.238,1.637,1.95,79.937,-7160,-10844,-20492,33.16,,,,,,,,,,,,,,,
 22:02:05.279,COM13,,-0.087,0.036,1.014,-10.62,5.249,95.215,1.593,2,81.832,-7102,-11398,-19699,33.22,,,,,,,,,,,,,,,
 22:02:05.282,COM13,,-0.093,-0.004,0.985,-7.935,4.456,92.102,1.588,2.027,83.749,-7058,-12009,-18829,33.17,,,,,,,,,,,,,,,
 22:02:05.313,COM13,,-0.092,0.003,0.984,-6.897,5.432,90.637,1.599,2.043,85.6,-6925,-12600,-17866,33.2,,,,,,,,,,,,,,,
 22:02:05.315,COM13,,-0.104,-0.022,1.044,-4.578,4.272,91.37,1.648,2.082,87.418,-6968,-12967,-17014,33.17,,,,,,,,,,,,,,,
 22:02:05.346,COM13,,-0.1,-0.018,1.037,-3.906,0,85.999,1.697,2.098,89.258,-6854,-13312,-16014,33.18,,,,,,,,,,,,,,,
 22:02:05.377,COM13,,-0.104,0.074,1.016,-0.366,-3.357,86.426,1.813,2.032,90.983,-6693,-13596,-14999,33.2,,,,,,,,,,,,,,,
 22:02:05.382,COM13,,-0.044,0.091,1.015,-1.038,-3.357,89.05,1.923,1.901,92.714,-6532,-13753,-13993,33.2,,,,,,,,,,,,,,,
 22:02:05.407,COM13,,-0.062,0.152,0.908,-5.188,-2.136,91.98,1.961,1.758,94.493,-6326,-13882,-12976,33.2,,,,,,,,,,,,,,,
 22:02:05.436,COM13,,-0.046,0.12,0.928,-11.047,2.747,93.262,1.895,1.637,96.334,-6150,-13911,-11992,33.2,,,,,,,,,,,,,,,
 22:02:05.440,COM13,,-0.046,0,0.942,-11.23,8.606,93.628,1.824,1.609,98.207,-5920,-13895,-11007,33.18,,,,,,,,,,,,,,,
 22:02:05.470,COM13,,-0.091,-0.016,1.051,-6.897,9.521,94.421,1.835,1.697,100.091,-5723,-13868,-9998,33.17,,,,,,,,,,,,,,,
 22:02:05.475,COM13,,-0.122,0.031,1.059,-6.165,2.747,91.614,1.851,1.802,101.992,-5527,-13765,-9088,33.18,,,,,,,,,,,,,,,
 22:02:05.506,COM13,,-0.056,-0.011,1.035,-4.395,-1.099,89.722,1.895,1.78,103.832,-5388,-13571,-8241,33.18,,,,,,,,,,,,,,,
 22:02:05.540,COM13,,-0.075,-0.006,0.969,-2.441,-0.305,87.769,1.961,1.681,105.628,-5328,-13336,-7484,33.18,,,,,,,,,,,,,,,
 22:02:05.542,COM13,,-0.115,0.107,0.975,-2.747,1.892,88.623,2.032,1.599,107.386,-5175,-13035,-6659,33.19,,,,,,,,,,,,,,,
 22:02:05.570,COM13,,-0.072,0.094,1.017,-6.653,-2.258,88.196,2.021,1.56,109.166,-4952,-12775,-5903,33.19,,,,,,,,,,,,,,,
 22:02:05.576,COM13,,-0.01,0.08,0.993,-6.287,-0.916,91.797,2.027,1.439,110.929,-4674,-12446,-5101,33.21,,,,,,,,,,,,,,,
 22:02:05.605,COM13,,-0.04,0.048,0.919,-8.484,2.93,92.834,1.994,1.335,112.769,-4603,-12091,-4610,33.21,,,,,,,,,,,,,,,
 22:02:05.639,COM13,,-0.113,0.045,0.927,-7.935,9.033,91.003,1.967,1.307,114.631,-4395,-11679,-4004,33.2,,,,,,,,,,,,,,,
 22:02:05.642,COM13,,-0.063,-0.017,1.129,-6.287,5.188,89.661,1.967,1.406,116.461,-4273,-11347,-3507,33.17,,,,,,,,,,,,,,,
 22:02:05.668,COM13,,-0.094,0.019,1.07,-3.723,-3.479,90.637,2.01,1.428,118.262,-4170,-10960,-3061,33.18,,,,,,,,,,,,,,,
 22:02:05.674,COM13,,-0.073,0.051,0.97,-4.395,-5.798,88.501,2.032,1.274,120.075,-4055,-10510,-2638,33.18,,,,,,,,,,,,,,,
 22:02:05.709,COM13,,-0.009,0.065,0.881,-5.432,0.977,87.646,2.032,1.082,121.844,-3884,-10107,-2172,33.2,,,,,,,,,,,,,,,
 22:02:05.737,COM13,,-0.035,0.002,1,-5.249,5.859,88.074,2.032,1.022,123.596,-3716,-9678,-1771,33.2,,,,,,,,,,,,,,,
 22:02:05.742,COM13,,-0.093,0.138,0.99,-5.31,4.761,89.722,2.043,1.055,125.365,-3541,-9223,-1432,33.17,,,,,,,,,,,,,,,
 22:02:05.772,COM13,,-0.039,0.016,1.013,-7.019,4.578,89.6,2.021,1.066,127.167,-3369,-8812,-1111,33.2,,,,,,,,,,,,,,,
 22:02:05.776,COM13,,-0.072,0.048,1.006,-6.592,2.991,89.539,2.005,1.071,128.969,-3200,-8399,-845,33.21,,,,,,,,,,,,,,,
 22:02:05.804,COM13,,-0.135,0.054,1.04,-5.371,1.526,90.698,2.01,1.044,130.765,-3156,-8022,-655,33.2,,,,,,,,,,,,,,,
 22:02:05.837,COM13,,-0.029,0.032,1.038,-5.188,-3.662,89.783,2.021,0.994,132.578,-3069,-7686,-500,33.16,,,,,,,,,,,,,,,
 22:02:05.841,COM13,,-0.025,0.05,0.938,-5.615,-2.197,90.881,2.016,0.846,134.374,-3024,-7306,-390,33.2,,,,,,,,,,,,,,,
 22:02:05.869,COM13,,-0.076,0.08,0.922,-5.371,3.601,91.553,2.016,0.72,136.192,-2917,-6921,-261,33.18,,,,,,,,,,,,,,,
 22:02:05.876,COM13,,0.005,0.051,0.982,-7.813,6.653,91.064,1.972,0.709,138.027,-2950,-6607,-223,33.18,,,,,,,,,,,,,,,
 22:02:05.907,COM13,,-0.078,0.037,1.026,-6.958,6.165,91.492,1.945,0.753,139.856,-2879,-6280,-164,33.17,,,,,,,,,,,,,,,
 22:02:05.926,COM13,,-0.133,0.019,1.042,-7.019,2.563,90.088,1.912,0.791,141.696,-2897,-6001,-130,33.19,,,,,,,,,,,,,,,
 22:02:05.956,COM13,,-0.027,0.021,1.05,-4.15,-1.953,90.698,1.928,0.764,143.498,-2808,-5726,-104,33.18,,,,,,,,,,,,,,,
 22:02:05.961,COM13,,-0.03,0.043,0.963,-4.028,-2.686,90.942,1.945,0.648,145.316,-2821,-5488,-78,33.2,,,,,,,,,,,,,,,
 22:02:05.988,COM13,,-0.1,0.086,0.945,-5.798,1.831,90.454,1.928,0.516,147.134,-2791,-5167,-48,33.18,,,,,,,,,,,,,,,
 22:02:05.995,COM13,,0.009,0.001,0.98,-5.371,3.54,90.393,1.917,0.472,148.947,-2677,-4857,-20,33.17,,,,,,,,,,,,,,,
 22:02:06.035,COM13,,-0.057,0.083,1.008,-5.92,3.967,91.492,1.895,0.467,150.754,-2616,-4545,-43,33.17,,,,,,,,,,,,,,,
 22:02:06.039,COM13,,-0.08,0.075,0.997,-6.775,3.296,92.773,1.862,0.461,152.589,-2670,-4307,-120,33.18,,,,,,,,,,,,,,,
 22:02:06.066,COM13,,-0.066,-0.009,1.029,-8.118,0.366,88.562,1.796,0.445,154.451,-2646,-4106,-112,33.19,,,,,,,,,,,,,,,
 22:02:06.099,COM13,,-0.028,0.051,0.983,-3.967,1.709,94.666,1.813,0.379,156.226,-2727,-3913,-242,33.19,,,,,,,,,,,,,,,
 22:02:06.104,COM13,,-0.09,0.021,1.033,-6.104,0,89.539,1.78,0.335,158.121,-2766,-3730,-316,33.19,,,,,,,,,,,,,,,
 22:02:06.135,COM13,,-0.016,0.053,0.945,-5.127,-0.732,90.881,1.769,0.264,159.911,-2721,-3536,-397,33.18,,,,,,,,,,,,,,,
 22:02:06.139,COM13,,-0.059,-0.008,1.02,-5.188,2.869,90.881,1.747,0.176,161.73,-2703,-3302,-451,33.19,,,,,,,,,,,,,,,
 22:02:06.177,COM13,,-0.025,0.133,0.981,-6.348,0.732,90.027,1.708,0.159,163.553,-2700,-3071,-519,33.17,,,,,,,,,,,,,,,
 22:02:06.181,COM13,,-0.041,-0.034,0.966,-6.042,3.906,92.102,1.675,0.104,165.355,-2786,-2919,-612,33.24,,,,,,,,,,,,,,,
 22:02:06.210,COM13,,-0.08,0.081,1.027,-6.287,2.014,89.722,1.631,0.104,167.201,-2754,-2733,-639,33.18,,,,,,,,,,,,,,,
 22:02:06.216,COM13,,-0.025,0.034,0.973,-4.883,3.601,93.933,1.626,0.077,168.997,-2791,-2608,-752,33.21,,,,,,,,,,,,,,,
 22:02:06.247,COM13,,-0.074,0.027,1.068,-6.287,-0.061,90.088,1.582,0.077,170.881,-2744,-2467,-813,33.19,,,,,,,,,,,,,,,
 22:02:06.279,COM13,,-0.037,0.031,0.936,-4.883,0.427,93.445,1.571,0.005,172.683,-2773,-2294,-910,33.2,,,,,,,,,,,,,,,
 22:02:06.284,COM13,,-0.062,0.037,1.048,-6.287,0.305,90.393,1.522,-0.055,174.551,-2844,-2157,-986,33.2,,,,,,,,,,,,,,,
 22:02:06.314,COM13,,-0.002,0.056,0.921,-5.615,1.16,92.651,1.494,-0.11,176.364,-2895,-1936,-1063,33.2,,,,,,,,,,,,,,,
 22:02:06.319,COM13,,-0.083,-0.027,1.05,-5.859,2.93,90.881,1.45,-0.159,178.215,-2996,-1804,-1186,33.17,,,,,,,,,,,,,,,
 22:02:06.348,COM13,,-0.001,0.133,0.945,-5.798,2.014,92.224,1.417,-0.165,-179.956,-2947,-1668,-1244,33.23,,,,,,,,,,,,,,,
 22:02:06.380,COM13,,-0.027,0.056,1.02,-5.981,0.549,91.797,1.379,-0.187,-178.11,-3016,-1548,-1354,33.21,,,,,,,,,,,,,,,
 22:02:06.383,COM13,,-0.085,0.072,1.041,-6.104,-0.183,92.896,1.335,-0.181,-176.265,-3041,-1394,-1428,33.2,,,,,,,,,,,,,,,
 22:02:06.414,COM13,,-0.042,0.005,0.967,-6.348,-2.441,92.163,1.296,-0.236,-174.424,-3091,-1261,-1557,33.19,,,,,,,,,,,,,,,
 22:02:06.417,COM13,,-0.013,0.008,0.954,-5.615,2.93,93.323,1.247,-0.308,-172.568,-3086,-1107,-1630,33.17,,,,,,,,,,,,,,,
 22:02:06.436,COM13,,-0.031,0.076,1.009,-7.507,1.404,91.125,1.198,-0.39,-170.717,-3120,-1001,-1705,33.22,,,,,,,,,,,,,,,
 22:02:06.467,COM13,,-0.034,0.036,0.97,-5.127,3.052,97.046,1.132,-0.396,-168.86,-3147,-970,-1772,33.18,,,,,,,,,,,,,,,
 22:02:06.498,COM13,,-0.056,0.004,1.008,-7.019,3.784,92.773,1.099,-0.412,-167.009,-3231,-915,-1840,33.2,,,,,,,,,,,,,,,
 22:02:06.501,COM13,,-0.064,0.042,1.031,-6.104,2.441,94.788,1.038,-0.406,-165.086,-3181,-772,-1906,33.2,,,,,,,,,,,,,,,
 22:02:06.529,COM13,,-0.042,0.045,0.997,-6.348,0,95.581,0.994,-0.39,-163.213,-3299,-585,-2017,33.16,,,,,,,,,,,,,,,
 22:02:06.536,COM13,,-0.05,-0.04,0.986,-6.287,0.977,93.994,0.945,-0.406,-161.312,-3421,-456,-2141,33.21,,,,,,,,,,,,,,,
 22:02:06.567,COM13,,-0.021,0.027,0.987,-6.592,1.343,91.98,0.884,-0.45,-159.406,-3457,-374,-2217,33.17,,,,,,,,,,,,,,,
 22:02:06.598,COM13,,-0.043,0.021,0.993,-6.287,3.174,92.163,0.818,-0.472,-157.538,-3423,-262,-2285,33.2,,,,,,,,,,,,,,,
 22:02:06.603,COM13,,-0.026,-0.041,1.019,-6.409,0.488,89.783,0.758,-0.483,-155.693,-3417,-221,-2339,33.21,,,,,,,,,,,,,,,
 22:02:06.634,COM13,,-0.064,0.049,0.952,-5.859,2.258,88.989,0.692,-0.472,-153.858,-3469,-85,-2417,33.21,,,,,,,,,,,,,,,
 22:02:06.637,COM13,,-0.045,0.045,1.05,-5.676,2.258,91.309,0.637,-0.5,-152.067,-3465,0,-2486,33.19,,,,,,,,,,,,,,,
 22:02:06.665,COM13,,-0.031,0.101,0.983,-6.348,-0.061,94.604,0.593,-0.489,-150.271,-3629,60,-2564,33.21,,,,,,,,,,,,,,,
 22:02:06.696,COM13,,-0.037,-0.032,0.984,-6.958,1.343,95.398,0.538,-0.489,-148.431,-3663,193,-2596,33.19,,,,,,,,,,,,,,,
 22:02:06.702,COM13,,-0.048,0.058,0.972,-6.775,2.441,96.13,0.472,-0.522,-146.53,-3718,271,-2664,33.2,,,,,,,,,,,,,,,
 22:02:06.731,COM13,,-0.042,0.003,1.02,-7.202,2.747,96.313,0.412,-0.527,-144.619,-3789,430,-2744,33.18,,,,,,,,,,,,,,,
 22:02:06.737,COM13,,-0.013,-0.071,0.978,-7.202,2.014,93.14,0.346,-0.505,-142.69,-3795,569,-2818,33.18,,,,,,,,,,,,,,,
 22:02:06.766,COM13,,-0.082,-0.05,1.002,-5.676,4.211,89.355,0.275,-0.489,-140.779,-3699,725,-2859,33.19,,,,,,,,,,,,,,,
 22:02:06.799,COM13,,-0.043,-0.024,1.036,-4.7,1.404,87.097,0.22,-0.467,-138.933,-3684,794,-2907,33.22,,,,,,,,,,,,,,,
 22:02:06.802,COM13,,-0.049,-0.009,1.016,-4.944,-0.549,84.412,0.176,-0.417,-137.153,-3760,878,-2970,33.2,,,,,,,,,,,,,,,
 22:02:06.831,COM13,,-0.03,0.053,1.012,-3.418,-2.502,84.656,0.132,-0.423,-135.423,-3747,985,-3014,33.18,,,,,,,,,,,,,,,
 22:02:06.837,COM13,,-0.056,0.198,0.956,-4.883,-1.709,95.764,0.115,-0.461,-133.731,-3772,1118,-3054,33.21,,,,,,,,,,,,,,,
 22:02:06.869,COM13,,0.018,0.048,0.976,-8.911,1.099,97.168,0.082,-0.527,-131.984,-3916,1164,-3128,33.17,,,,,,,,,,,,,,,
 22:02:06.901,COM13,,-0.056,-0.072,0.955,-6.287,3.174,97.839,0.005,-0.566,-130.062,-3858,1297,-3154,33.22,,,,,,,,,,,,,,,
 22:02:06.904,COM13,,-0.017,0.011,0.965,-7.141,7.141,97.9,-0.049,-0.56,-128.112,-3927,1337,-3205,33.24,,,,,,,,,,,,,,,
 22:02:06.933,COM13,,-0.058,-0.13,1.007,-5.798,8.118,90.393,-0.104,-0.494,-126.151,-3966,1495,-3247,33.2,,,,,,,,,,,,,,,
 22:02:06.939,COM13,,-0.086,-0.024,1.067,-3.723,3.662,89.722,-0.148,-0.368,-124.228,-3873,1676,-3275,33.19,,,,,,,,,,,,,,,
 22:02:06.971,COM13,,-0.042,0,1.051,-4.517,-0.732,84.839,-0.165,-0.247,-122.421,-3869,1812,-3306,33.2,,,,,,,,,,,,,,,
 22:02:06.980,COM13,,-0.082,0.113,0.992,-4.395,-4.211,89.6,-0.198,-0.209,-120.646,-3930,1882,-3333,33.21,,,,,,,,,,,,,,,
 22:02:07.008,COM13,,-0.021,0.059,0.959,-7.568,-1.404,93.262,-0.225,-0.253,-118.927,-3924,1905,-3394,33.21,,,,,,,,,,,,,,,
 22:02:07.043,COM13,,-0.028,-0.046,0.984,-7.446,0.854,93.567,-0.297,-0.33,-117.114,-3858,2024,-3442,33.2,,,,,,,,,,,,,,,
 22:02:07.046,COM13,,-0.014,-0.04,0.957,-5.798,2.258,93.689,-0.357,-0.352,-115.247,-3834,2078,-3480,33.18,,,,,,,,,,,,,,,
 22:02:07.072,COM13,,-0.07,-0.049,1.016,-5.615,3.418,88.989,-0.401,-0.335,-113.373,-3893,2224,-3517,33.24,,,,,,,,,,,,,,,
 22:02:07.077,COM13,,-0.025,-0.047,0.993,-3.296,3.113,86.853,-0.439,-0.291,-111.517,-3913,2302,-3561,33.2,,,,,,,,,,,,,,,
 22:02:07.105,COM13,,-0.029,0.047,0.995,-4.639,3.357,86.792,-0.45,-0.231,-109.748,-3883,2337,-3610,33.19,,,,,,,,,,,,,,,
 22:02:07.138,COM13,,-0.057,-0.028,1.006,-4.395,2.869,85.449,-0.478,-0.176,-108.007,-3912,2505,-3667,33.19,,,,,,,,,,,,,,,
 22:02:07.142,COM13,,-0.089,-0.016,1.003,-5.92,2.014,85.327,-0.505,-0.115,-106.276,-3881,2648,-3701,33.21,,,,,,,,,,,,,,,
 22:02:07.171,COM13,,-0.02,-0.02,1.027,-4.15,0.488,83.923,-0.544,-0.071,-104.568,-3893,2731,-3733,33.2,,,,,,,,,,,,,,,
 22:02:07.177,COM13,,-0.041,0.032,0.996,-5.981,-0.488,85.083,-0.571,-0.038,-102.865,-3833,2822,-3756,33.18,,,,,,,,,,,,,,,
 22:02:07.208,COM13,,-0.067,-0.016,0.979,-2.625,-0.61,86.182,-0.604,-0.038,-101.179,-3772,2930,-3787,33.18,,,,,,,,,,,,,,,
 22:02:07.242,COM13,,-0.007,0.04,0.979,-5.92,2.258,86.304,-0.599,-0.049,-99.47,-3726,3050,-3837,33.17,,,,,,,,,,,,,,,
 22:02:07.244,COM13,,-0.07,0.021,0.993,-5.249,2.991,87.585,-0.637,-0.044,-97.745,-3684,3149,-3865,33.2,,,,,,,,,,,,,,,
 22:02:07.274,COM13,,-0.058,-0.006,1.001,-5.859,2.747,87.769,-0.654,0,-96.01,-3703,3308,-3892,33.2,,,,,,,,,,,,,,,
 22:02:07.278,COM13,,-0.039,-0.018,1.043,-3.845,0.122,88.196,-0.676,0.055,-94.252,-3704,3372,-3935,33.21,,,,,,,,,,,,,,,
 22:02:07.307,COM13,,-0.074,0.038,0.986,-6.653,-0.916,87.463,-0.681,0.099,-92.494,-3682,3540,-3977,33.2,,,,,,,,,,,,,,,
 22:02:07.340,COM13,,-0.067,-0.049,0.978,-5.188,0.671,87.402,-0.725,0.099,-90.731,-3694,3632,-4019,33.2,,,,,,,,,,,,,,,
 22:02:07.346,COM13,,0.008,0.035,1.003,-5.676,-0.061,88.562,-0.747,0.093,-88.978,-3627,3805,-4033,33.23,,,,,,,,,,,,,,,
 22:02:07.374,COM13,,-0.076,-0.021,0.942,-5.371,3.906,87.83,-0.775,0.11,-87.226,-3655,3892,-4065,33.2,,,,,,,,,,,,,,,
 22:02:07.378,COM13,,-0.069,0.019,1.052,-7.08,2.319,88.623,-0.802,0.132,-85.457,-3609,3991,-4099,33.2,,,,,,,,,,,,,,,
 22:02:07.408,COM13,,-0.057,-0.07,1.007,-4.761,0.549,86.975,-0.84,0.203,-83.694,-3620,4045,-4144,33.18,,,,,,,,,,,,,,,
 22:02:07.437,COM13,,-0.027,0.025,0.974,-3.967,-0.488,88.257,-0.851,0.247,-81.925,-3558,4099,-4193,33.2,,,,,,,,,,,,,,,
 22:02:07.442,COM13,,-0.033,0.007,0.956,-5.127,3.601,88.257,-0.846,0.264,-80.178,-3527,4255,-4226,33.24,,,,,,,,,,,,,,,
 22:02:07.484,COM13,,-0.09,0.022,1.024,-7.141,3.845,87.158,-0.868,0.28,-78.409,-3486,4353,-4285,33.2,,,,,,,,,,,,,,,
 22:02:07.486,COM13,,-0.07,-0.074,1.049,-4.517,0.366,89.05,-0.906,0.357,-76.646,-3489,4479,-4317,33.18,,,,,,,,,,,,,,,
 22:02:07.515,COM13,,-0.057,0.09,0.987,-4.761,-1.465,88.745,-0.906,0.423,-74.894,-3486,4605,-4356,33.2,,,,,,,,,,,,,,,
 22:02:07.521,COM13,,-0.027,-0.011,0.964,-8.057,-1.587,89.6,-0.917,0.434,-73.109,-3393,4690,-4411,33.22,,,,,,,,,,,,,,,
 22:02:07.549,COM13,,-0.075,-0.033,0.938,-6.226,4.761,88.501,-0.961,0.412,-71.329,-3368,4776,-4473,33.2,,,,,,,,,,,,,,,
 22:02:07.583,COM13,,-0.017,0,1.026,-4.7,5.371,91.797,-0.967,0.456,-69.543,-3292,4847,-4532,33.23,,,,,,,,,,,,,,,
 22:02:07.585,COM13,,-0.133,0.034,1.012,-5.859,3.235,91.248,-0.967,0.566,-67.736,-3251,5009,-4603,33.2,,,,,,,,,,,,,,,
 22:02:07.614,COM13,,-0.038,0.023,1.055,-6.531,-1.282,91.248,-0.978,0.659,-65.907,-3223,5126,-4683,33.16,,,,,,,,,,,,,,,
 22:02:07.620,COM13,,-0.084,-0.035,0.96,-6.714,-2.502,94.238,-0.994,0.698,-64.078,-3205,5169,-4759,33.2,,,,,,,,,,,,,,,
 22:02:07.649,COM13,,-0.064,0.044,0.945,-5.737,2.502,94.116,-1.011,0.67,-62.221,-3198,5327,-4840,33.17,,,,,,,,,,,,,,,
 22:02:07.681,COM13,,0.015,0.009,0.989,-10.071,3.723,93.75,-1.049,0.687,-60.331,-3229,5407,-4894,33.19,,,,,,,,,,,,,,,
 22:02:07.685,COM13,,-0.146,-0.034,0.996,-6.47,4.761,94.788,-1.093,0.764,-58.453,-3246,5520,-4963,33.2,,,,,,,,,,,,,,,
 22:02:07.715,COM13,,-0.067,-0.006,1.023,-7.446,3.052,94.788,-1.11,0.862,-56.563,-3235,5639,-5015,33.2,,,,,,,,,,,,,,,
 22:02:07.718,COM13,,-0.082,-0.025,1.005,-4.944,2.014,95.154,-1.11,0.956,-54.662,-3190,5726,-5089,33.17,,,,,,,,,,,,,,,
 22:02:07.748,COM13,,-0.067,0.03,1.015,-8.118,0.366,94.482,-1.115,1.027,-52.762,-3265,5762,-5141,33.18,,,,,,,,,,,,,,,
 22:02:07.782,COM13,,-0.104,-0.042,0.991,-5.615,0.427,95.825,-1.126,1.071,-50.861,-3165,5863,-5226,33.19,,,,,,,,,,,,,,,
 22:02:07.785,COM13,,-0.048,-0.003,0.996,-5.859,0,95.032,-1.115,1.099,-48.955,-3175,5913,-5309,33.2,,,,,,,,,,,,,,,
 22:02:07.836,COM13,,-0.078,0.018,0.963,-5.676,1.282,95.764,-1.104,1.126,-47.038,-3188,6074,-5387,33.19,,,,,,,,,,,,,,,
 22:02:07.842,COM13,,-0.063,-0.021,0.984,-6.592,3.357,95.215,-1.099,1.159,-45.126,-3193,6153,-5482,33.2,,,,,,,,,,,,,,,
 22:02:07.845,COM13,,-0.078,-0.015,0.998,-6.042,3.54,95.703,-1.093,1.225,-43.215,-3218,6310,-5594,33.22,,,,,,,,,,,,,,,
 22:02:07.871,COM13,,-0.093,0.006,1.005,-7.202,2.441,94.849,-1.093,1.307,-41.303,-3205,6411,-5696,33.21,,,,,,,,,,,,,,,
 22:02:07.877,COM13,,-0.09,-0.023,1.025,-6.836,0.549,95.276,-1.099,1.384,-39.391,-3160,6570,-5809,33.19,,,,,,,,,,,,,,,
 22:02:07.909,COM13,,-0.087,-0.019,0.983,-5.981,-0.244,94.788,-1.093,1.434,-37.485,-3136,6662,-5903,33.19,,,,,,,,,,,,,,,
 22:02:07.944,COM13,,-0.07,-0.011,0.987,-5.615,0.977,94.604,-1.077,1.456,-35.579,-3044,6698,-6015,33.2,,,,,,,,,,,,,,,
 22:02:07.947,COM13,,-0.07,-0.032,0.983,-4.333,2.197,93.811,-1.044,1.489,-33.679,-3069,6801,-6131,33.23,,,,,,,,,,,,,,,
 22:02:07.964,COM13,,-0.08,-0.029,1,-6.226,1.526,91.675,-1.016,1.538,-31.789,-3054,6903,-6275,33.18,,,,,,,,,,,,,,,
 22:02:07.994,COM13,,-0.094,0.012,0.998,-3.845,1.526,92.59,-0.989,1.588,-29.932,-3081,6987,-6427,33.19,,,,,,,,,,,,,,,
 22:02:07.999,COM13,,-0.067,-0.014,0.998,-5.676,1.343,91.553,-0.95,1.631,-28.081,-3071,7132,-6558,33.21,,,,,,,,,,,,,,,
 22:02:08.027,COM13,,-0.09,-0.028,1.011,-5.432,0.671,90.759,-0.934,1.675,-26.235,-3014,7195,-6711,33.2,,,,,,,,,,,,,,,
 22:02:08.059,COM13,,-0.104,0.024,0.989,-3.174,1.038,92.041,-0.884,1.708,-24.406,-2958,7369,-6894,33.2,,,,,,,,,,,,,,,
 22:02:08.063,COM13,,-0.089,0.026,1.014,-4.517,0,93.811,-0.824,1.741,-22.571,-3001,7471,-7045,33.19,,,,,,,,,,,,,,,
 22:02:08.092,COM13,,-0.044,-0.014,0.966,-6.226,-0.183,92.102,-0.791,1.763,-20.709,-3125,7505,-7208,33.23,,,,,,,,,,,,,,,
 22:02:08.099,COM13,,-0.07,-0.011,0.97,-6.042,2.136,92.224,-0.775,1.769,-18.842,-3083,7666,-7427,33.21,,,,,,,,,,,,,,,
 22:02:08.130,COM13,,-0.102,0.06,0.966,-5.676,4.822,94.177,-0.747,1.796,-16.996,-3057,7732,-7635,33.2,,,,,,,,,,,,,,,
 22:02:08.163,COM13,,-0.1,-0.016,1.035,-8.972,3.906,93.079,-0.742,1.868,-15.123,-3124,7876,-7827,33.18,,,,,,,,,,,,,,,
 22:02:08.166,COM13,,-0.087,-0.032,1.031,-5.798,-0.061,93.384,-0.736,1.961,-13.244,-3180,7973,-8041,33.19,,,,,,,,,,,,,,,
 22:02:08.196,COM13,,-0.116,0.022,0.982,-5.493,-0.366,93.811,-0.698,2.005,-11.376,-3178,8019,-8302,33.22,,,,,,,,,,,,,,,
 22:02:08.200,COM13,,-0.063,-0.011,0.968,-5.371,2.197,93.933,-0.654,2.01,-9.498,-3240,8118,-8569,33.2,,,,,,,,,,,,,,,
 22:02:08.228,COM13,,-0.088,-0.042,1.026,-6.775,0.854,91.614,-0.632,2.032,-7.614,-3311,8233,-8812,33.2,,,,,,,,,,,,,,,
 22:02:08.262,COM13,,-0.09,-0.024,0.985,-4.761,-0.305,89.111,-0.61,2.065,-5.751,-3327,8267,-9114,33.2,,,,,,,,,,,,,,,
 22:02:08.264,COM13,,-0.073,-0.002,0.951,-4.456,1.953,89.355,-0.566,2.076,-3.939,-3388,8322,-9429,33.19,,,,,,,,,,,,,,,
 22:02:08.295,COM13,,-0.072,-0.03,1.023,-5.188,2.93,86.792,-0.522,2.093,-2.148,-3404,8463,-9739,33.19,,,,,,,,,,,,,,,
 22:02:08.298,COM13,,-0.109,0.013,1.003,2.197,1.587,89.294,-0.417,2.142,-0.379,-3406,8533,-10060,33.2,,,,,,,,,,,,,,,
 22:02:08.329,COM13,,-0.091,0.183,1.022,-7.019,-0.916,91.37,-0.319,2.181,1.384,-3534,8565,-10313,33.21,,,,,,,,,,,,,,,
 22:02:08.360,COM13,,-0.086,-0.012,0.978,-4.822,-0.671,93.811,-0.275,2.181,3.197,-3578,8573,-10697,33.2,,,,,,,,,,,,,,,
 22:02:08.366,COM13,,-0.085,-0.012,0.966,-11.108,1.038,94.421,-0.269,2.153,5.054,-3701,8618,-10991,33.23,,,,,,,,,,,,,,,
 22:02:08.396,COM13,,-0.064,0.02,0.948,-5.92,4.7,93.567,-0.275,2.148,6.943,-3815,8756,-11434,33.23,,,,,,,,,,,,,,,
 22:02:08.399,COM13,,-0.108,-0.064,1.013,-5.493,5.127,92.468,-0.231,2.197,8.833,-3846,8766,-11834,33.23,,,,,,,,,,,,,,,
 22:02:08.428,COM13,,-0.093,-0.016,1.023,-5.127,2.869,90.088,-0.181,2.285,10.701,-3859,8853,-12268,33.21,,,,,,,,,,,,,,,
 22:02:08.463,COM13,,-0.099,-0.023,1.019,-4.333,0.854,87.097,-0.132,2.351,12.535,-3930,8826,-12696,33.24,,,,,,,,,,,,,,,
 22:02:08.466,COM13,,-0.112,0.021,1.026,0.793,-0.793,90.637,-0.022,2.373,14.315,-4081,8748,-13153,33.22,,,,,,,,,,,,,,,
 22:02:08.501,COM13,,-0.089,0.191,0.991,-6.042,-2.93,93.262,0.077,2.357,16.095,-4232,8706,-13563,33.2,,,,,,,,,,,,,,,
 22:02:08.504,COM13,,-0.081,-0.001,0.957,-9.033,-0.732,93.75,0.099,2.307,17.941,-4249,8615,-14032,33.17,,,,,,,,,,,,,,,
 22:02:08.533,COM13,,-0.048,-0.028,0.938,-7.263,3.357,96.069,0.104,2.247,19.819,-4321,8552,-14549,33.2,,,,,,,,,,,,,,,
 22:02:08.542,COM13,,-0.075,-0.003,0.991,-5.554,5.31,93.262,0.143,2.252,21.725,-4498,8520,-15046,33.23,,,,,,,,,,,,,,,
 22:02:08.571,COM13,,-0.126,-0.016,0.997,-4.822,5.981,91.309,0.198,2.318,23.626,-4600,8399,-15642,33.24,,,,,,,,,,,,,,,
 22:02:08.602,COM13,,-0.102,-0.023,1.038,-4.028,4.028,90.759,0.264,2.401,25.483,-4836,8258,-16170,33.2,,,,,,,,,,,,,,,
 22:02:08.607,COM13,,-0.098,0.035,1.048,-3.662,-0.671,88.013,0.335,2.472,27.312,-4931,8116,-16742,33.2,,,,,,,,,,,,,,,
 22:02:08.639,COM13,,-0.114,0.096,0.987,-3.906,-2.563,91.858,0.412,2.483,29.108,-5012,7876,-17333,33.23,,,,,,,,,,,,,,,
 22:02:08.646,COM13,,-0.078,0.021,0.972,-8.85,-1.099,92.285,0.45,2.417,30.91,-5180,7660,-17856,33.2,,,,,,,,,,,,,,,
 22:02:08.675,COM13,,-0.074,-0.063,0.973,-4.333,0.183,89.783,0.472,2.351,32.761,-5242,7351,-18465,33.2,,,,,,,,,,,,,,,
 22:02:08.679,COM13,,-0.064,0.08,0.973,-5.493,2.014,91.064,0.527,2.313,34.585,-5406,7103,-19023,33.19,,,,,,,,,,,,,,,
 22:02:08.708,COM13,,-0.043,0.005,0.967,-4.517,5.066,90.393,0.582,2.302,36.403,-5564,6744,-19577,33.2,,,,,,,,,,,,,,,
 22:02:08.740,COM13,,-0.141,-0.026,0.979,-3.601,6.348,89.478,0.654,2.335,38.227,-5705,6334,-20133,33.23,,,,,,,,,,,,,,,
 22:02:08.744,COM13,,-0.107,0.108,1.055,-5.127,4.15,90.393,0.714,2.411,40.029,-5797,5961,-20669,33.21,,,,,,,,,,,,,,,
 22:02:08.774,COM13,,-0.089,0.08,1.044,-5.92,-0.244,92.407,0.769,2.466,41.841,-5929,5458,-21239,33.19,,,,,,,,,,,,,,,
 22:02:08.781,COM13,,-0.107,-0.014,0.976,-7.019,-2.563,93.567,0.802,2.444,43.687,-6063,4982,-21773,33.2,,,,,,,,,,,,,,,
 22:02:08.812,COM13,,-0.076,0.008,0.978,-5.188,-0.549,92.224,0.851,2.362,45.56,-6191,4423,-22270,33.22,,,,,,,,,,,,,,,
 22:02:08.842,COM13,,-0.071,0.023,0.969,-4.578,1.465,90.82,0.912,2.302,47.417,-6368,3767,-22717,33.2,,,,,,,,,,,,,,,
 22:02:08.849,COM13,,-0.105,0.041,0.984,-4.883,2.441,92.529,0.972,2.274,49.246,-6461,3149,-23129,33.22,,,,,,,,,,,,,,,
 22:02:08.879,COM13,,-0.061,-0.019,1.014,-4.944,1.831,89.6,1.022,2.269,51.097,-6650,2470,-23530,33.22,,,,,,,,,,,,,,,
 22:02:08.884,COM13,,-0.067,0.066,0.96,-4.028,3.235,88.806,1.082,2.258,52.91,-6677,1729,-23876,33.2,,,,,,,,,,,,,,,
 22:02:08.911,COM13,,-0.095,0.108,0.997,-4.395,4.211,94.36,1.159,2.263,54.695,-6727,935,-24183,33.24,,,,,,,,,,,,,,,
 22:02:08.943,COM13,,-0.107,0.024,1.017,-7.263,2.869,93.384,1.192,2.285,56.569,-6885,156,-24409,33.2,,,,,,,,,,,,,,,
 22:02:08.946,COM13,,-0.123,0.025,1.013,-6.104,0.977,92.896,1.23,2.291,58.447,-6912,-771,-24566,33.2,,,,,,,,,,,,,,,
 22:02:08.970,COM13,,-0.074,0.068,0.991,-6.836,0.366,94.604,1.258,2.263,60.315,-7044,-1577,-24668,33.2,,,,,,,,,,,,,,,
 22:02:09.025,COM13,,-0.061,-0.018,1.004,-6.165,-0.732,93.506,1.291,2.219,62.205,-7173,-2473,-24698,33.16,,,,,,,,,,,,,,,
 22:02:09.027,COM13,,-0.093,0.005,0.958,-5.737,0.793,89.905,1.324,2.148,64.089,-7307,-3316,-24629,33.2,,,,,,,,,,,,,,,
 22:02:09.030,COM13,,-0.052,0.065,0.948,-4.272,4.578,92.102,1.373,2.098,65.907,-7249,-4321,-24430,33.18,,,,,,,,,,,,,,,
 22:02:09.060,COM13,,-0.085,-0.017,1.009,-5.188,6.531,90.881,1.423,2.109,67.747,-7438,-5121,-24276,33.21,,,,,,,,,,,,,,,
 22:02:09.063,COM13,,-0.106,0.088,1.038,-4.272,3.296,90.027,1.478,2.164,69.582,-7446,-6039,-23945,33.24,,,,,,,,,,,,,,,
 22:02:09.092,COM13,,-0.089,0.087,1.01,-6.592,0.61,91.797,1.511,2.181,71.395,-7485,-6893,-23586,33.24,,,,,,,,,,,,,,,
 22:02:09.099,COM13,,-0.071,0.021,0.976,-8.911,0.732,91.553,1.5,2.142,73.229,-7495,-7768,-23154,33.2,,,,,,,,,,,,,,,
 22:02:09.132,COM13,,-0.118,0.005,0.982,-6.958,1.038,89.478,1.5,2.087,75.064,-7546,-8578,-22582,33.21,,,,,,,,,,,,,,,
 22:02:09.162,COM13,,-0.041,0.104,0.991,-6.592,1.831,92.529,1.516,2.043,76.871,-7354,-9405,-21881,33.2,,,,,,,,,,,,,,,
 22:02:09.165,COM13,,-0.036,-0.021,0.973,-6.775,3.174,92.285,1.533,2.01,78.712,-7316,-10109,-21230,33.2,,,,,,,,,,,,,,,
 22:02:09.195,COM13,,-0.138,-0.028,0.973,-4.639,6.104,88.989,1.571,1.994,80.568,-7221,-10843,-20419,33.19,,,,,,,,,,,,,,,
 22:02:09.201,COM13,,-0.048,0.093,1.025,-2.625,4.639,89.539,1.642,2.032,82.37,-7144,-11463,-19607,33.21,,,,,,,,,,,,,,,
 22:02:09.230,COM13,,-0.08,0.06,1.017,-7.507,2.319,88.745,1.664,2.06,84.172,-7197,-11956,-18806,33.2,,,,,,,,,,,,,,,
 22:02:09.261,COM13,,-0.107,0.011,0.999,-5.371,1.77,90.21,1.686,2.049,85.957,-6979,-12519,-17805,33.24,,,,,,,,,,,,,,,
 22:02:09.267,COM13,,-0.101,0.059,0.962,-1.709,2.258,90.759,1.78,2.01,87.759,-6839,-12953,-16813,33.2,,,,,,,,,,,,,,,
 22:02:09.295,COM13,,-0.047,0.102,1.022,-8.179,1.343,90.637,1.791,1.983,89.577,-6780,-13299,-15947,33.2,,,,,,,,,,,,,,,
 22:02:09.303,COM13,,-0.1,0.023,1.002,-8.24,0.122,90.82,1.774,1.939,91.395,-6597,-13553,-14956,33.2,,,,,,,,,,,,,,,
 22:02:09.334,COM13,,-0.097,0.018,0.959,-4.883,0.854,92.041,1.802,1.873,93.219,-6455,-13733,-13889,33.24,,,,,,,,,,,,,,,
 22:02:09.365,COM13,,-0.039,0.056,1.007,-6.042,2.502,90.637,1.829,1.813,95.054,-6324,-13890,-12922,33.22,,,,,,,,,,,,,,,
 22:02:09.368,COM13,,-0.073,0.075,0.989,-6.104,2.747,92.224,1.846,1.78,96.883,-6149,-13998,-11930,33.2,,,,,,,,,,,,,,,
 22:02:09.399,COM13,,-0.087,0.024,1.007,-7.202,2.197,91.858,1.851,1.752,98.723,-6076,-13889,-11061,33.22,,,,,,,,,,,,,,,
 22:02:09.403,COM13,,-0.076,-0.02,0.983,-5.127,1.892,89.233,1.873,1.725,100.569,-5883,-13768,-10108,33.21,,,,,,,,,,,,,,,
 22:02:09.430,COM13,,-0.07,0.083,1.011,-1.709,2.38,90.881,1.95,1.686,102.371,-5614,-13703,-9061,33.2,,,,,,,,,,,,,,,
 22:02:09.462,COM13,,-0.061,0.094,0.983,-6.348,1.953,91.675,1.983,1.653,104.189,-5428,-13509,-8259,33.18,,,,,,,,,,,,,,,
 22:02:09.465,COM13,,-0.11,0.016,0.993,-7.141,1.709,90.332,1.978,1.609,106.024,-5270,-13302,-7418,33.21,,,,,,,,,,,,,,,
 22:02:09.490,COM13,,-0.056,0.083,0.988,-6.165,1.648,91.919,1.983,1.566,107.842,-5010,-12996,-6577,33.24,,,,,,,,,,,,,,,
 22:02:09.520,COM13,,-0.063,0.03,1.003,-6.897,1.648,92.407,1.983,1.516,109.677,-4877,-12702,-5832,33.21,,,,,,,,,,,,,,,
 22:02:09.523,COM13,,-0.079,0.035,0.994,-6.042,1.465,91.675,1.989,1.467,111.528,-4743,-12372,-5153,33.2,,,,,,,,,,,,,,,
 22:02:09.553,COM13,,-0.062,0.052,0.974,-5.676,1.709,91.187,2,1.417,113.368,-4568,-11978,-4520,33.2,,,,,,,,,,,,,,,
 22:02:09.584,COM13,,-0.052,0.001,1.03,-5.188,2.686,91.675,2.021,1.368,115.197,-4439,-11609,-3925,33.2,,,,,,,,,,,,,,,
 22:02:09.588,COM13,,-0.083,0.073,0.977,-5.615,0.61,89.661,2.027,1.335,117.037,-4276,-11231,-3393,33.22,,,,,,,,,,,,,,,
 22:02:09.618,COM13,,-0.09,0.043,0.961,-6.836,3.54,89.966,2.016,1.274,118.839,-4219,-10882,-3033,33.2,,,,,,,,,,,,,,,
 22:02:09.622,COM13,,-0.013,0.021,1.042,-5.31,1.709,89.417,2.021,1.252,120.646,-4011,-10445,-2511,33.22,,,,,,,,,,,,,,,
 22:02:09.652,COM13,,-0.072,0.072,0.985,-5.31,2.136,91.309,2.032,1.214,122.443,-3842,-10071,-2118,33.19,,,,,,,,,,,,,,,
 22:02:09.682,COM13,,-0.106,0.039,0.989,-5.798,1.953,89.294,2.038,1.165,124.261,-3717,-9658,-1736,33.2,,,,,,,,,,,,,,,
 22:02:09.690,COM13,,-0.046,0.034,1.014,-4.578,1.709,90.332,2.054,1.126,126.063,-3614,-9303,-1421,33.2,,,,,,,,,,,,,,,
 22:02:09.725,COM13,,-0.081,0.092,1.019,-6.287,-0.854,91.37,2.049,1.077,127.864,-3523,-8928,-1206,33.23,,,,,,,,,,,,,,,
 22:02:09.728,COM13,,-0.045,0.039,0.96,-6.958,-0.916,89.783,2.027,0.994,129.688,-3329,-8450,-908,33.24,,,,,,,,,,,,,,,
 22:02:09.767,COM13,,-0.005,0.045,0.954,-5.737,3.723,92.102,2.021,0.895,131.495,-3262,-8069,-724,33.2,,,,,,,,,,,,,,,
 22:02:09.770,COM13,,-0.1,0.049,0.979,-6.409,5.371,91.492,2.01,0.862,133.33,-3197,-7744,-597,33.2,,,,,,,,,,,,,,,
 22:02:09.798,COM13,,-0.033,0.041,0.996,-6.531,5.676,90.759,1.994,0.873,135.17,-3118,-7328,-422,33.24,,,,,,,,,,,,,,,
 22:02:09.801,COM13,,-0.099,0.025,1.09,-6.409,1.892,90.332,1.972,0.901,136.994,-3042,-6983,-340,33.24,,,,,,,,,,,,,,,
 22:02:09.830,COM13,,-0.118,0.061,1.014,-4.822,-2.014,91.736,1.978,0.873,138.807,-3029,-6653,-236,33.24,,,,,,,,,,,,,,,
 22:02:09.862,COM13,,0.009,0.03,0.994,-6.165,-4.822,90.088,1.967,0.775,140.636,-2982,-6319,-218,33.23,,,,,,,,,,,,,,,
 22:02:09.866,COM13,,-0.01,0.047,0.872,-5.249,1.465,91.614,1.956,0.615,142.443,-2881,-5921,-108,33.2,,,,,,,,,,,,,,,
 22:02:09.895,COM13,,-0.062,0.058,0.932,-5.981,10.803,90.637,1.939,0.533,144.272,-2857,-5650,-89,33.24,,,,,,,,,,,,,,,
 22:02:09.900,COM13,,-0.07,0.103,1.105,-6.836,6.897,93.018,1.917,0.615,146.096,-2810,-5423,-114,33.22,,,,,,,,,,,,,,,
 22:02:09.932,COM13,,-0.103,0.035,1.058,-7.568,0.366,93.872,1.873,0.67,147.964,-2752,-5111,-84,33.23,,,,,,,,,,,,,,,
 22:02:09.964,COM13,,-0.072,-0.005,0.995,-6.042,-3.479,92.529,1.857,0.599,149.843,-2727,-4824,-127,33.18,,,,,,,,,,,,,,,
 22:02:09.968,COM13,,-0.04,0.06,0.967,-5.371,-1.831,93.628,1.846,0.45,151.694,-2762,-4537,-184,33.21,,,,,,,,,,,,,,,
 22:02:09.999,COM13,,-0.036,0.058,0.966,-6.836,1.953,92.957,1.807,0.341,153.567,-2787,-4297,-276,33.21,,,,,,,,,,,,,,,
 22:02:10.002,COM13,,-0.02,-0.023,0.975,-6.531,2.93,91.064,1.769,0.302,155.429,-2783,-4059,-292,33.18,,,,,,,,,,,,,,,
 22:02:10.035,COM13,,-0.049,0.037,0.975,-4.822,6.348,92.102,1.758,0.286,157.253,-2767,-3809,-350,33.2,,,,,,,,,,,,,,,
 22:02:10.040,COM13,,-0.097,0.091,1.038,-5.859,4.578,91.492,1.736,0.335,159.099,-2816,-3641,-401,33.22,,,,,,,,,,,,,,,
 22:02:10.071,COM13,,-0.056,-0.004,1.054,-6.226,-0.183,90.149,1.703,0.352,160.933,-2794,-3415,-408,33.2,,,,,,,,,,,,,,,
 22:02:10.102,COM13,,-0.055,0.063,0.984,-5.005,-2.991,93.567,1.692,0.28,162.74,-2769,-3224,-481,33.22,,,,,,,,,,,,,,,
 22:02:10.108,COM13,,-0.082,0.042,0.997,-5.737,-1.038,91.614,1.664,0.148,164.608,-2843,-3009,-593,33.2,,,,,,,,,,,,,,,
 22:02:10.138,COM13,,0.035,-0.022,0.968,-5.31,-0.427,89.783,1.637,0.06,166.443,-2810,-2849,-668,33.22,,,,,,,,,,,,,,,
 22:02:10.142,COM13,,-0.072,0.021,0.988,-4.578,1.526,90.271,1.615,-0.016,168.239,-2782,-2694,-741,33.18,,,,,,,,,,,,,,,
 22:02:10.171,COM13,,-0.037,0.103,0.927,-5.615,5.31,88.806,1.582,-0.055,170.046,-2886,-2588,-864,33.22,,,,,,,,,,,,,,,
 22:02:10.203,COM13,,-0.024,-0.043,1.058,-6.042,4.822,87.769,1.538,-0.016,171.826,-2812,-2441,-902,33.19,,,,,,,,,,,,,,,
 22:02:10.208,COM13,,-0.064,0.102,1.002,-5.371,1.038,90.637,1.511,0.011,173.589,-2841,-2295,-970,33.2,,,,,,,,,,,,,,,
 22:02:10.237,COM13,,-0.099,0.036,1.019,-6.226,-0.122,88.501,1.467,-0.038,175.402,-2833,-2173,-1054,33.23,,,,,,,,,,,,,,,
 22:02:10.242,COM13,,-0.045,0.027,1.063,-7.629,-2.136,89.844,1.39,-0.099,177.171,-2808,-2008,-1102,33.16,,,,,,,,,,,,,,,
 22:02:10.271,COM13,,-0.004,0.068,0.935,-5.554,-2.502,92.896,1.357,-0.198,178.967,-2845,-1895,-1188,33.22,,,,,,,,,,,,,,,
 22:02:10.303,COM13,,-0.027,0.03,0.928,-7.202,0.244,90.21,1.291,-0.308,-179.171,-2880,-1706,-1252,33.2,,,,,,,,,,,,,,,
 22:02:10.307,COM13,,-0.026,0.026,0.979,-4.578,6.042,95.337,1.28,-0.363,-177.363,-2951,-1597,-1357,33.2,,,,,,,,,,,,,,,
 22:02:10.339,COM13,,-0.033,0.085,1.022,-3.357,5.249,95.581,1.296,-0.308,-175.452,-3105,-1533,-1474,33.2,,,,,,,,,,,,,,,
 22:02:10.342,COM13,,-0.065,-0.004,0.979,-6.47,4.578,93.506,1.247,-0.269,-173.535,-3124,-1314,-1546,33.24,,,,,,,,,,,,,,,
 22:02:10.370,COM13,,-0.075,0.009,1.033,-5.798,3.967,94.421,1.208,-0.242,-171.661,-3110,-1235,-1683,33.25,,,,,,,,,,,,,,,
 22:02:10.401,COM13,,-0.042,0.085,1.029,-6.287,0.671,93.75,1.165,-0.22,-169.772,-3191,-1137,-1798,33.23,,,,,,,,,,,,,,,
 22:02:10.406,COM13,,-0.055,-0.059,1.025,-5.737,-1.77,91.553,1.121,-0.258,-167.893,-3178,-936,-1864,33.25,,,,,,,,,,,,,,,
 22:02:10.436,COM13,,-0.045,0.07,0.938,-4.822,-1.038,94.482,1.099,-0.346,-166.064,-3303,-787,-1949,33.24,,,,,,,,,,,,,,,
 22:02:10.441,COM13,,-0.018,0.029,1.015,-5.859,1.343,91.553,1.049,-0.417,-164.174,-3354,-727,-2023,33.22,,,,,,,,,,,,,,,
 22:02:10.470,COM13,,-0.015,-0.01,0.95,-6.042,1.526,92.102,1,-0.445,-162.339,-3341,-576,-2065,33.24,,,,,,,,,,,,,,,
 22:02:10.505,COM13,,-0.044,0.039,0.982,-5.249,6.042,92.896,0.961,-0.467,-160.494,-3468,-469,-2163,33.2,,,,,,,,,,,,,,,
 22:02:10.508,COM13,,-0.033,0.008,1.013,-6.104,4.211,89.05,0.906,-0.396,-158.632,-3431,-341,-2197,33.18,,,,,,,,,,,,,,,
 22:02:10.521,COM13,,-0.074,0.031,1.032,-5.493,2.991,92.896,0.868,-0.363,-156.846,-3503,-225,-2290,33.23,,,,,,,,,,,,,,,
 22:02:10.550,COM13,,-0.06,0.069,1.033,-7.019,-0.793,91.614,0.802,-0.352,-154.99,-3505,-187,-2333,33.21,,,,,,,,,,,,,,,
 22:02:10.584,COM13,,-0.064,-0.008,0.996,-5.981,-2.075,93.628,0.753,-0.406,-153.155,-3486,-63,-2393,33.21,,,,,,,,,,,,,,,
 22:02:10.587,COM13,,0.007,0.045,0.965,-6.348,-1.587,92.957,0.698,-0.489,-151.282,-3499,31,-2486,33.22,,,,,,,,,,,,,,,
 22:02:10.613,COM13,,-0.003,0.013,0.909,-6.409,5.249,92.712,0.637,-0.56,-149.425,-3581,134,-2560,33.23,,,,,,,,,,,,,,,
 22:02:10.647,COM13,,-0.051,0.001,1.03,-6.042,6.409,94.238,0.588,-0.5,-147.563,-3606,259,-2637,33.2,,,,,,,,,,,,,,,
 22:02:10.650,COM13,,-0.078,0.045,1.031,-6.531,3.967,92.163,0.533,-0.412,-145.679,-3650,342,-2706,33.21,,,,,,,,,,,,,,,
 22:02:10.678,COM13,,-0.067,0.005,1.031,-6.653,0.916,92.896,0.472,-0.368,-143.828,-3670,479,-2775,33.21,,,,,,,,,,,,,,,
 22:02:10.683,COM13,,-0.05,0.062,0.999,-6.714,-0.854,95.459,0.417,-0.385,-141.971,-3733,558,-2848,33.23,,,,,,,,,,,,,,,
 22:02:10.712,COM13,,-0.052,-0.004,1.012,-6.897,-1.221,95.276,0.352,-0.428,-140.059,-3814,669,-2920,33.2,,,,,,,,,,,,,,,
 22:02:10.743,COM13,,-0.009,-0.021,0.959,-7.202,-1.404,93.628,0.28,-0.483,-138.153,-3810,758,-2963,33.2,,,,,,,,,,,,,,,
 22:02:10.751,COM13,,-0.033,-0.063,0.97,-6.775,2.625,89.233,0.203,-0.533,-136.28,-3790,919,-2990,33.2,,,,,,,,,,,,,,,
 22:02:10.781,COM13,,-0.014,-0.028,0.986,-5.005,2.808,88.44,0.154,-0.505,-134.495,-3808,1028,-3055,33.18,,,,,,,,,,,,,,,
 22:02:10.786,COM13,,-0.054,0.025,1.007,-5.188,4.456,86.731,0.104,-0.478,-132.72,-3816,1183,-3078,33.2,,,,,,,,,,,,,,,
 22:02:10.814,COM13,,-0.063,0.029,1.035,-5.371,1.526,85.51,0.055,-0.412,-130.984,-3780,1283,-3113,33.2,,,,,,,,,,,,,,,
 22:02:10.825,COM13,,-0.036,0.167,0.98,-5.066,0.671,95.825,0.038,-0.401,-129.271,-3914,1313,-3200,33.21,,,,,,,,,,,,,,,
 22:02:10.855,COM13,,-0.041,0.013,0.996,-7.996,2.319,96.863,-0.033,-0.406,-127.354,-3872,1455,-3230,33.2,,,,,,,,,,,,,,,
 22:02:10.861,COM13,,-0.086,-0.026,1.003,-7.08,0.549,96.436,-0.088,-0.379,-125.414,-3887,1546,-3285,33.21,,,,,,,,,,,,,,,
 22:02:10.892,COM13,,0.012,-0.022,1.001,-8.24,0.61,95.459,-0.176,-0.385,-123.486,-3861,1633,-3335,33.23,,,,,,,,,,,,,,,
 22:02:10.926,COM13,,-0.039,-0.145,0.935,-4.578,2.747,90.149,-0.209,-0.385,-121.575,-3825,1762,-3375,33.2,,,,,,,,,,,,,,,
 22:02:10.929,COM13,,-0.106,-0.042,1.019,-4.578,5.859,85.022,-0.247,-0.346,-119.767,-3886,1825,-3402,33.21,,,,,,,,,,,,,,,
 22:02:10.955,COM13,,-0.014,-0.001,1.1,-6.042,-0.793,80.688,-0.319,-0.236,-118.065,-3806,1987,-3422,33.21,,,,,,,,,,,,,,,
 22:02:10.962,COM13,,-0.023,0.053,0.983,0.122,-5.432,85.144,-0.258,-0.258,-116.45,-3863,2049,-3475,33.2,,,,,,,,,,,,,,,
 22:02:10.993,COM13,,-0.056,0.176,0.896,-7.568,2.136,91.675,-0.335,-0.379,-114.747,-3916,2163,-3509,33.17,,,,,,,,,,,,,,,
 22:02:11.022,COM13,,-0.024,-0.028,0.982,-7.507,6.104,91.492,-0.396,-0.346,-112.912,-3798,2272,-3539,33.2,,,,,,,,,,,,,,,
 22:02:11.025,COM13,,-0.033,-0.011,1.019,-4.883,5.188,96.252,-0.406,-0.231,-111.077,-3850,2344,-3573,33.2,,,,,,,,,,,,,,,
 22:02:11.052,COM13,,-0.065,-0.081,1.015,-6.409,3.845,90.027,-0.456,-0.137,-109.149,-3834,2485,-3612,33.16,,,,,,,,,,,,,,,
 22:02:11.083,COM13,,-0.091,-0.03,1.026,-6.042,0.427,85.876,-0.511,-0.071,-107.347,-3784,2584,-3644,33.2,,,,,,,,,,,,,,,
 22:02:11.089,COM13,,-0.012,0.009,1.029,-4.395,-1.77,86.853,-0.527,-0.06,-105.628,-3729,2622,-3677,33.2,,,,,,,,,,,,,,,
 22:02:11.117,COM13,,-0.066,0.038,0.961,-5.249,2.441,85.144,-0.544,-0.099,-103.887,-3699,2773,-3715,33.19,,,,,,,,,,,,,,,
 22:02:11.126,COM13,,0.002,0.055,0.988,-5.371,3.418,88.928,-0.577,-0.115,-102.167,-3682,2837,-3756,33.24,,,,,,,,,,,,,,,
 22:02:11.155,COM13,,-0.057,-0.104,0.996,-7.324,3.845,85.51,-0.61,-0.06,-100.443,-3680,3028,-3777,33.22,,,,,,,,,,,,,,,
 22:02:11.160,COM13,,-0.094,0.023,1.042,-3.357,1.526,86.914,-0.659,0.005,-98.679,-3672,3155,-3830,33.22,,,,,,,,,,,,,,,
 22:02:11.192,COM13,,-0.033,0.003,1.042,-5.371,-1.587,84.656,-0.659,0.066,-96.96,-3674,3214,-3865,33.21,,,,,,,,,,,,,,,
 22:02:11.224,COM13,,-0.042,-0.032,0.942,-4.761,-1.465,85.022,-0.687,0.082,-95.229,-3617,3319,-3882,33.22,,,,,,,,,,,,,,,
 22:02:11.228,COM13,,-0.037,0.02,0.992,-3.906,1.343,85.815,-0.703,0.055,-93.538,-3708,3381,-3922,33.2,,,,,,,,,,,,,,,
 22:02:11.259,COM13,,-0.022,0.046,0.979,-5.31,2.136,87.463,-0.709,0.044,-91.829,-3628,3530,-3975,33.2,,,,,,,,,,,,,,,
 22:02:11.262,COM13,,-0.071,-0.047,0.978,-5.676,3.113,85.632,-0.731,0.077,-90.104,-3677,3605,-3996,33.21,,,,,,,,,,,,,,,
 22:02:11.291,COM13,,-0.075,-0.021,1.008,-5.127,3.54,86.426,-0.764,0.121,-88.358,-3719,3763,-4032,33.19,,,,,,,,,,,,,,,
 22:02:11.324,COM13,,-0.011,0.042,1.041,-4.333,2.686,88.074,-0.78,0.187,-86.638,-3662,3857,-4054,33.21,,,,,,,,,,,,,,,
 22:02:11.327,COM13,,-0.113,0.023,1.035,-7.629,-1.77,85.449,-0.791,0.258,-84.902,-3635,3910,-4097,33.23,,,,,,,,,,,,,,,
 22:02:11.356,COM13,,-0.026,-0.049,0.951,-3.784,-2.625,88.989,-0.829,0.291,-83.15,-3604,4008,-4136,33.2,,,,,,,,,,,,,,,
 22:02:11.362,COM13,,-0.023,0.03,0.974,-3.845,1.282,89.111,-0.818,0.258,-81.42,-3637,4144,-4208,33.24,,,,,,,,,,,,,,,
 22:02:11.394,COM13,,-0.087,0.025,0.985,-9.033,2.441,87.036,-0.829,0.236,-79.64,-3554,4299,-4263,33.23,,,,,,,,,,,,,,,
 22:02:11.427,COM13,,-0.039,-0.017,0.984,-5.432,4.883,90.088,-0.901,0.269,-77.866,-3568,4437,-4309,33.21,,,,,,,,,,,,,,,
 22:02:11.430,COM13,,-0.04,-0.014,1.024,-5.493,2.441,90.393,-0.906,0.341,-76.108,-3500,4555,-4359,33.24,,,,,,,,,,,,,,,
 22:02:11.461,COM13,,-0.103,-0.001,1.005,-5.249,0.61,88.867,-0.917,0.434,-74.301,-3477,4650,-4418,33.22,,,,,,,,,,,,,,,
 22:02:11.464,COM13,,-0.057,0.047,0.993,-7.202,1.343,89.966,-0.934,0.478,-72.499,-3454,4673,-4494,33.22,,,,,,,,,,,,,,,
 22:02:11.493,COM13,,-0.039,-0.06,1.023,-5.249,-0.061,91.797,-0.961,0.505,-70.714,-3485,4800,-4530,33.21,,,,,,,,,,,,,,,
 22:02:11.525,COM13,,-0.075,0.014,0.971,-5.493,-0.305,90.515,-0.967,0.538,-68.901,-3366,4874,-4578,33.22,,,,,,,,,,,,,,,
 22:02:11.530,COM13,,-0.069,0.055,0.972,-5.92,2.502,92.651,-0.972,0.544,-67.066,-3266,4953,-4619,33.2,,,,,,,,,,,,,,,
 22:02:11.545,COM13,,-0.046,-0.035,0.999,-7.446,3.174,92.285,-0.989,0.566,-65.242,-3233,5088,-4709,33.2,,,,,,,,,,,,,,,
 22:02:11.574,COM13,,-0.04,0.007,0.985,-5.737,3.296,93.994,-1.016,0.632,-63.391,-3215,5142,-4766,33.22,,,,,,,,,,,,,,,
 22:02:11.605,COM13,,-0.112,0.023,0.983,-7.996,4.639,93.506,-1.027,0.709,-61.534,-3201,5327,-4801,33.24,,,,,,,,,,,,,,,
 22:02:11.611,COM13,,-0.066,-0.042,1.048,-6.714,3.113,94.482,-1.06,0.791,-59.65,-3216,5416,-4856,33.21,,,,,,,,,,,,,,,
 22:02:11.666,COM13,,-0.083,0.004,1.029,-8.118,-2.258,93.933,-1.082,0.895,-57.777,-3214,5584,-4945,33.23,,,,,,,,,,,,,,,
 22:02:11.669,COM13,,-0.093,-0.016,0.964,-4.395,-1.404,95.093,-1.104,0.945,-55.882,-3245,5645,-5022,33.2,,,,,,,,,,,,,,,
 22:02:11.672,COM13,,-0.01,0.026,0.951,-5.92,1.648,95.581,-1.082,0.923,-53.998,-3204,5757,-5102,33.22,,,,,,,,,,,,,,,
 22:02:11.702,COM13,,-0.077,-0.059,0.962,-7.08,4.761,93.872,-1.082,0.934,-52.086,-3208,5892,-5184,33.22,,,,,,,,,,,,,,,
 22:02:11.705,COM13,,-0.088,0.035,1.035,-6.165,4.822,95.032,-1.099,0.994,-50.18,-3210,5953,-5250,33.24,,,,,,,,,,,,,,,
 22:02:11.734,COM13,,-0.102,0.003,1.025,-6.958,1.587,95.764,-1.099,1.11,-48.296,-3188,5965,-5349,33.2,,,,,,,,,,,,,,,
 22:02:11.766,COM13,,-0.085,-0.028,1.01,-5.676,-0.183,96.436,-1.099,1.203,-46.384,-3202,6079,-5425,33.24,,,,,,,,,,,,,,,
 22:02:11.769,COM13,,-0.069,0.009,0.978,-5.493,-0.305,96.924,-1.077,1.247,-44.462,-3197,6192,-5533,33.2,,,,,,,,,,,,,,,
 22:02:11.800,COM13,,-0.064,0.009,0.975,-6.47,1.77,96.741,-1.06,1.263,-42.528,-3203,6372,-5626,33.23,,,,,,,,,,,,,,,
 22:02:11.803,COM13,,-0.099,-0.034,1.007,-5.92,1.77,97.046,-1.049,1.285,-40.583,-3196,6449,-5727,33.22,,,,,,,,,,,,,,,
 22:02:11.832,COM13,,-0.05,0.013,0.968,-9.033,1.892,95.459,-1.049,1.34,-38.644,-3189,6525,-5823,33.22,,,,,,,,,,,,,,,
 22:02:11.865,COM13,,-0.078,-0.038,0.985,-6.104,3.662,95.337,-1.077,1.395,-36.705,-3116,6629,-5960,33.23,,,,,,,,,,,,,,,
 22:02:11.869,COM13,,-0.116,-0.002,1.023,-5.432,3.174,96.191,-1.06,1.461,-34.794,-3054,6759,-6114,33.23,,,,,,,,,,,,,,,
 22:02:11.898,COM13,,-0.09,-0.026,1.023,-5.859,0.366,94.604,-1.033,1.544,-32.877,-3126,6874,-6228,33.19,,,,,,,,,,,,,,,
 22:02:11.902,COM13,,-0.089,-0.011,1.006,-4.883,-1.343,94.971,-1.005,1.615,-30.954,-3035,6981,-6356,33.23,,,,,,,,,,,,,,,
 22:02:11.931,COM13,,-0.082,-0.013,0.968,-7.019,-0.244,93.201,-0.978,1.631,-29.059,-3097,7032,-6473,33.23,,,,,,,,,,,,,,,
 22:02:11.964,COM13,,-0.049,-0.053,0.975,-5.31,1.892,92.041,-0.978,1.626,-27.158,-3145,7143,-6615,33.23,,,,,,,,,,,,,,,
 22:02:11.967,COM13,,-0.087,-0.03,0.992,-3.845,2.93,91.064,-0.95,1.653,-25.296,-3188,7233,-6779,33.24,,,,,,,,,,,,,,,
 22:02:11.996,COM13,,-0.089,0.017,1.011,-5.066,2.38,89.722,-0.906,1.708,-23.456,-3142,7389,-6947,33.24,,,,,,,,,,,,,,,
 22:02:12.002,COM13,,-0.098,-0.058,1.012,-5.005,0.488,88.44,-0.879,1.774,-21.638,-3180,7455,-7122,33.25,,,,,,,,,,,,,,,
 22:02:12.033,COM13,,-0.083,0.048,1,-0.977,0.183,91.248,-0.829,1.824,-19.841,-3120,7637,-7336,33.23,,,,,,,,,,,,,,,
 22:02:12.052,COM13,,-0.082,0.066,1.004,-5.188,-0.793,91.919,-0.736,1.84,-18.051,-3228,7748,-7504,33.2,,,,,,,,,,,,,,,
 22:02:12.082,COM13,,-0.075,-0.01,0.994,-7.202,-0.916,92.346,-0.703,1.851,-16.221,-3229,7775,-7714,33.2,,,,,,,,,,,,,,,
 22:02:12.085,COM13,,-0.058,-0.005,0.944,-6.348,1.282,92.834,-0.698,1.84,-14.37,-3165,7831,-7905,33.22,,,,,,,,,,,,,,,
 22:02:12.116,COM13,,-0.082,-0.009,0.962,-5.859,4.7,91.98,-0.681,1.835,-12.519,-3196,7947,-8130,33.22,,,,,,,,,,,,,,,
 22:02:12.145,COM13,,-0.097,-0.004,1.01,-5.127,6.042,92.285,-0.654,1.884,-10.657,-3185,7991,-8381,33.2,,,,,,,,,,,,,,,
 22:02:12.151,COM13,,-0.113,0.044,1.051,-5.432,2.197,92.957,-0.61,1.983,-8.811,-3153,8164,-8621,33.23,,,,,,,,,,,,,,,
 22:02:12.181,COM13,,-0.094,0.007,0.999,-6.958,-1.221,93.689,-0.566,2.087,-6.954,-3219,8256,-8884,33.2,,,,,,,,,,,,,,,
 22:02:12.185,COM13,,-0.089,-0.059,1.007,-5.005,-0.916,92.529,-0.544,2.115,-5.087,-3260,8327,-9166,33.2,,,,,,,,,,,,,,,
 22:02:12.213,COM13,,-0.103,-0.015,0.984,-4.883,-1.16,90.271,-0.494,2.093,-3.214,-3342,8466,-9470,33.24,,,,,,,,,,,,,,,
 22:02:12.246,COM13,,-0.042,-0.006,0.946,-3.174,1.953,89.722,-0.445,2.071,-1.362,-3397,8563,-9783,33.2,,,,,,,,,,,,,,,
 22:02:12.249,COM13,,-0.063,0.037,1.007,-5.615,2.136,89.966,-0.379,2.065,0.439,-3421,8597,-10094,33.2,,,,,,,,,,,,,,,
 22:02:12.281,COM13,,-0.125,0.056,0.971,-4.7,3.601,91.614,-0.341,2.098,2.241,-3521,8597,-10414,33.21,,,,,,,,,,,,,,,
 22:02:12.284,COM13,,-0.072,0.039,1.018,-8.667,2.625,93.079,-0.302,2.137,4.054,-3635,8616,-10742,33.2,,,,,,,,,,,,,,,
 22:02:12.335,COM13,,-0.123,-0.01,0.995,-6.226,2.136,93.994,-0.286,2.197,5.9,-3668,8596,-11112,33.18,,,,,,,,,,,,,,,
 22:02:12.343,COM13,,-0.069,-0.035,1.005,-5.188,1.648,92.529,-0.242,2.236,7.778,-3735,8697,-11502,33.21,,,,,,,,,,,,,,,
 22:02:12.347,COM13,,-0.107,-0.015,0.987,-4.272,1.343,90.698,-0.181,2.263,9.651,-3805,8775,-11948,33.21,,,,,,,,,,,,,,,
 22:02:12.373,COM13,,-0.097,0.047,1.013,-2.991,1.16,91.309,-0.104,2.285,11.492,-3834,8770,-12363,33.21,,,,,,,,,,,,,,,
 22:02:12.408,COM13,,-0.09,0.053,1.005,-5.859,0,93.445,-0.038,2.296,13.321,-4025,8735,-12759,33.24,,,,,,,,,,,,,,,
 22:02:12.413,COM13,,-0.083,-0.005,0.99,-5.127,-0.61,92.59,0.016,2.296,15.172,-4124,8710,-13238,33.2,,,,,,,,,,,,,,,
 22:02:12.439,COM13,,-0.081,0.024,0.953,-6.958,1.221,93.445,0.055,2.269,17.04,-4288,8688,-13684,33.27,,,,,,,,,,,,,,,
 22:02:12.444,COM13,,-0.068,0.003,0.974,-5.859,4.15,92.468,0.082,2.258,18.907,-4331,8627,-14200,33.21,,,,,,,,,,,,,,,
 22:02:12.472,COM13,,-0.107,-0.05,0.993,-5.31,5.005,90.515,0.126,2.291,20.775,-4510,8533,-14691,33.24,,,,,,,,,,,,,,,
 22:02:12.505,COM13,,-0.079,-0.049,1.048,-4.395,2.686,86.731,0.176,2.362,22.615,-4669,8467,-15234,33.18,,,,,,,,,,,,,,,
 22:02:12.508,COM13,,-0.154,0.106,1.016,-0.244,-0.61,88.257,0.269,2.411,24.395,-4633,8293,-15840,33.23,,,,,,,,,,,,,,,
 22:02:12.538,COM13,,-0.083,0.149,1.001,-7.324,-1.892,94.238,0.352,2.406,26.153,-4826,8125,-16340,33.23,,,,,,,,,,,,,,,
 22:02:12.560,COM13,,-0.043,-0.039,0.959,-8.118,-1.16,92.712,0.368,2.362,27.982,-4944,7935,-16890,33.22,,,,,,,,,,,,,,,
 22:02:12.564,COM13,,-0.079,0.003,0.938,-6.104,2.502,93.445,0.39,2.302,29.861,-4963,7757,-17459,33.26,,,,,,,,,,,,,,,
 22:02:12.592,COM13,,-0.091,0.023,0.989,-5.066,6.287,93.445,0.439,2.285,31.729,-5191,7593,-17974,33.22,,,,,,,,,,,,,,,
 22:02:12.625,COM13,,-0.1,-0.076,1.03,-5.249,4.395,89.233,0.494,2.335,33.607,-5318,7319,-18531,33.24,,,,,,,,,,,,,,,
 22:02:12.629,COM13,,-0.102,-0.015,1.014,-5.188,1.404,85.144,0.533,2.406,35.442,-5499,6966,-19113,33.23,,,,,,,,,,,,,,,
 22:02:12.657,COM13,,-0.104,0.065,1.012,0.732,1.16,86.853,0.626,2.433,37.194,-5471,6544,-19796,33.23,,,,,,,,,,,,,,,
 22:02:12.663,COM13,,-0.083,0.145,1.015,-5.676,-1.099,91.614,0.725,2.422,38.925,-5656,6278,-20312,33.19,,,,,,,,,,,,,,,
 22:02:12.694,COM13,,-0.087,0.022,0.978,-7.019,-1.953,91.309,0.764,2.384,40.715,-5805,5818,-20823,33.22,,,,,,,,,,,,,,,
 22:02:12.727,COM13,,-0.092,0.05,0.948,-8.423,0.793,92.773,0.775,2.313,42.55,-5882,5324,-21379,33.25,,,,,,,,,,,,,,,
 22:02:12.730,COM13,,-0.039,0.031,0.96,-6.592,4.395,94.177,0.791,2.258,44.396,-6097,4823,-21860,33.22,,,,,,,,,,,,,,,
 22:02:12.759,COM13,,-0.071,-0.062,0.988,-4.761,5.615,92.59,0.84,2.269,46.274,-6206,4280,-22382,33.23,,,,,,,,,,,,,,,
 22:02:12.768,COM13,,-0.149,0.018,1.028,-4.456,4.517,89.478,0.901,2.318,48.153,-6369,3617,-22874,33.24,,,,,,,,,,,,,,,
 22:02:12.796,COM13,,-0.102,0.026,1.046,-2.502,1.709,89.05,0.983,2.368,49.982,-6482,2998,-23307,33.21,,,,,,,,,,,,,,,
 22:02:12.802,COM13,,-0.079,0.086,1.014,-5.005,-2.319,90.21,1.055,2.384,51.773,-6621,2283,-23680,33.24,,,,,,,,,,,,,,,
 22:02:12.833,COM13,,-0.086,0.001,0.979,-5.005,-2.136,89.539,1.11,2.335,53.575,-6897,1637,-23997,33.21,,,,,,,,,,,,,,,
 22:02:12.868,COM13,,-0.07,0.124,0.938,-4.822,0.488,92.651,1.165,2.236,55.377,-6872,765,-24288,33.23,,,,,,,,,,,,,,,
 22:02:12.870,COM13,,-0.07,0.082,0.953,-7.385,5.188,95.947,1.203,2.17,57.206,-6912,8,-24446,33.23,,,,,,,,,,,,,,,
 22:02:12.898,COM13,,-0.097,-0.042,1.031,-9.521,4.761,94.299,1.208,2.164,59.095,-7002,-804,-24600,33.22,,,,,,,,,,,,,,,
 22:02:12.903,COM13,,-0.082,0.029,1.016,-6.775,1.526,91.797,1.203,2.208,61.007,-7160,-1678,-24725,33.21,,,,,,,,,,,,,,,
 22:02:12.933,COM13,,-0.074,0.031,0.96,-6.348,3.54,91.492,1.225,2.208,62.88,-7277,-2523,-24764,33.21,,,,,,,,,,,,,,,
 22:02:12.964,COM13,,-0.123,-0.044,1.014,-5.432,3.784,89.905,1.258,2.203,64.72,-7432,-3460,-24713,33.22,,,,,,,,,,,,,,,
 22:02:12.971,COM13,,-0.119,-0.015,1.045,-6.287,-0.061,83.923,1.274,2.214,66.544,-7374,-4428,-24542,33.21,,,,,,,,,,,,,,,
 22:02:13.002,COM13,,-0.041,0.091,1.039,5.188,-2.502,89.722,1.395,2.203,68.286,-7221,-5545,-24250,33.24,,,,,,,,,,,,,,,
 22:02:13.005,COM13,,-0.074,0.137,0.969,-3.235,-3.052,92.773,1.56,2.12,70.027,-7405,-6317,-23990,33.22,,,,,,,,,,,,,,,
 22:02:13.033,COM13,,-0.105,0.063,0.92,-7.08,0.793,92.346,1.609,2,71.856,-7468,-7079,-23596,33.22,,,,,,,,,,,,,,,
 22:02:13.060,COM13,,-0.021,0.191,0.913,-8.85,6.531,97.046,1.609,1.906,73.713,-7213,-8064,-22996,33.24,,,,,,,,,,,,,,,
 22:02:13.064,COM13,,-0.065,0.026,1.006,-14.954,8.667,100.342,1.555,1.912,75.613,-7393,-8743,-22482,33.24,,,,,,,,,,,,,,,
 22:02:13.099,COM13,,-0.144,-0.067,1.041,-6.836,6.287,99.182,1.516,1.983,77.602,-7366,-9495,-21836,33.22,,,,,,,,,,,,,,,
 22:02:13.104,COM13,,-0.1,0.025,1.022,-9.033,2.93,93.689,1.516,2.054,79.607,-7520,-10203,-21164,33.22,,,,,,,,,,,,,,,
 22:02:13.136,COM13,,-0.057,-0.051,0.983,-5.798,2.808,91.064,1.522,2.076,81.546,-7267,-11153,-20167,33.23,,,,,,,,,,,,,,,
 22:02:13.171,COM13,,-0.104,-0.108,1.029,-2.93,1.526,87.28,1.566,2.071,83.397,-7188,-11739,-19374,33.24,,,,,,,,,,,,,,,
 22:02:13.175,COM13,,-0.089,0.03,1.015,-4.883,-1.77,78.857,1.593,2.049,85.188,-7066,-12290,-18433,33.24,,,,,,,,,,,,,,,
 22:02:13.202,COM13,,-0.058,0.04,0.962,8.301,0.488,84.229,1.73,1.983,86.858,-6720,-12851,-17337,33.23,,,,,,,,,,,,,,,
 22:02:13.206,COM13,,0.001,0.193,1.018,-0.61,0.488,89.05,1.928,1.912,88.489,-6772,-13121,-16611,33.23,,,,,,,,,,,,,,,
 22:02:13.235,COM13,,-0.12,0.158,0.946,-7.019,1.465,89.355,1.989,1.846,90.231,-6767,-13436,-15768,33.24,,,,,,,,,,,,,,,
 22:02:13.267,COM13,,-0.056,0.201,0.901,-10.437,7.019,97.229,1.972,1.78,92.016,-6427,-13701,-14650,33.21,,,,,,,,,,,,,,,
 22:02:13.271,COM13,,-0.107,-0.037,1.022,-15.686,7.629,97.107,1.89,1.78,93.889,-6384,-13829,-13685,33.21,,,,,,,,,,,,,,,
 22:02:13.301,COM13,,-0.159,-0.004,1.049,-8.423,5.859,96.68,1.818,1.835,95.845,-6498,-13865,-12892,33.21,,,,,,,,,,,,,,,
 22:02:13.304,COM13,,-0.05,-0.002,1.047,-7.874,-1.282,93.323,1.807,1.89,97.795,-6264,-13928,-11841,33.24,,,,,,,,,,,,,,,
 22:02:13.358,COM13,,-0.119,-0.08,1.012,-7.019,-2.502,86.487,1.796,1.862,99.701,-6098,-13948,-10823,33.23,,,,,,,,,,,,,,,
 22:02:13.363,COM13,,-0.031,-0.044,1.017,-3.052,-3.052,85.327,1.807,1.752,101.503,-5613,-13936,-9592,33.19,,,,,,,,,,,,,,,
 22:02:13.367,COM13,,-0.092,0.037,0.99,0.488,-3.662,83.618,1.884,1.631,103.222,-5458,-13726,-8685,33.23,,,,,,,,,,,,,,,
 22:02:13.393,COM13,,0.043,0.172,0.953,-0.671,-0.549,87.83,1.983,1.5,104.914,-5338,-13505,-8026,33.2,,,,,,,,,,,,,,,
 22:02:13.427,COM13,,-0.037,0.07,0.897,-5.249,4.456,88.928,2.043,1.384,106.628,-5419,-13287,-7444,33.22,,,,,,,,,,,,,,,
 22:02:13.430,COM13,,-0.091,0.117,0.918,-7.507,12.39,89.539,2.043,1.335,108.402,-5171,-12965,-6572,33.25,,,,,,,,,,,,,,,
 22:02:13.458,COM13,,-0.061,0.038,1.063,-9.399,11.23,89.966,2.01,1.412,110.198,-4917,-12652,-5794,33.2,,,,,,,,,,,,,,,
 22:02:13.464,COM13,,-0.161,0.026,1.112,-7.141,4.089,90.942,1.989,1.56,112.006,-4660,-12309,-5025,33.23,,,,,,,,,,,,,,,
 22:02:13.496,COM13,,-0.141,0.026,1.032,-7.69,-4.15,89.417,1.972,1.62,113.824,-4496,-11986,-4470,33.24,,,,,,,,,,,,,,,
 22:02:13.530,COM13,,-0.054,0.05,0.977,-5.493,-7.202,88.623,1.978,1.544,115.631,-4312,-11585,-3810,33.26,,,,,,,,,,,,,,,
 22:02:13.532,COM13,,0.027,0.031,0.961,-4.578,-1.465,90.393,2.005,1.346,117.405,-4159,-11201,-3353,33.21,,,,,,,,,,,,,,,
 22:02:13.562,COM13,,-0.066,0.079,0.972,-5.005,0.244,91.003,2.027,1.208,119.207,-4066,-10820,-2898,33.23,,,,,,,,,,,,,,,
 22:02:13.569,COM13,,-0.074,0.106,0.869,-8.179,6.409,90.759,2,1.121,121.025,-4044,-10434,-2602,33.21,,,,,,,,,,,,,,,
 22:02:13.583,COM13,,0.01,-0.02,1.066,-6.836,8.972,90.881,1.989,1.132,122.849,-3813,-10032,-2100,33.21,,,,,,,,,,,,,,,
 22:02:13.615,COM13,,-0.129,0.047,1.021,-5.615,5.981,91.675,1.989,1.208,124.678,-3781,-9641,-1853,33.24,,,,,,,,,,,,,,,
 22:02:13.649,COM13,,-0.132,0.035,1.067,-6.042,0.305,89.661,1.994,1.252,126.519,-3636,-9278,-1504,33.26,,,,,,,,,,,,,,,
 22:02:13.652,COM13,,-0.049,0.034,1.009,-5.432,-3.967,88.745,1.994,1.208,128.326,-3600,-8903,-1265,33.2,,,,,,,,,,,,,,,
 22:02:13.678,COM13,,-0.034,-0.021,0.989,-3.784,-2.563,89.478,2.016,1.071,130.106,-3433,-8477,-1022,33.22,,,,,,,,,,,,,,,
 22:02:13.685,COM13,,-0.056,0.152,0.93,-4.395,-0.183,89.539,2.038,0.934,131.891,-3325,-8045,-824,33.18,,,,,,,,,,,,,,,
 22:02:13.717,COM13,,0.017,0.036,0.916,-6.775,6.226,90.088,2.027,0.84,133.682,-3261,-7655,-644,33.23,,,,,,,,,,,,,,,
 22:02:13.750,COM13,,-0.087,0.046,1.017,-6.409,7.446,90.698,2.005,0.846,135.489,-3036,-7257,-405,33.18,,,,,,,,,,,,,,,
 22:02:13.754,COM13,,-0.118,0.042,1.055,-5.859,5.493,91.064,2,0.901,137.307,-2953,-6910,-281,33.21,,,,,,,,,,,,,,,
 22:02:13.782,COM13,,-0.072,0.087,1.057,-5.859,-0.977,91.797,2,0.934,139.131,-2934,-6614,-201,33.23,,,,,,,,,,,,,,,
 22:02:13.787,COM13,,-0.04,0.003,0.973,-6.287,-3.113,92.651,1.989,0.868,140.971,-2864,-6309,-140,33.24,,,,,,,,,,,,,,,
 22:02:13.815,COM13,,-0.083,0.085,0.961,-6.592,-0.549,91.736,1.967,0.736,142.817,-2840,-5978,-88,33.23,,,,,,,,,,,,,,,
 22:02:13.874,COM13,,-0.005,0.017,0.981,-5.188,2.075,93.262,1.961,0.632,144.657,-2792,-5624,-30,33.24,,,,,,,,,,,,,,,
 22:02:13.876,COM13,,-0.051,0.029,0.983,-7.141,3.54,91.248,1.928,0.577,146.519,-2821,-5392,-114,33.24,,,,,,,,,,,,,,,
 22:02:13.880,COM13,,-0.068,0.04,0.965,-5.92,5.371,90.149,1.906,0.56,148.359,-2722,-5070,-82,33.21,,,,,,,,,,,,,,,
 22:02:13.909,COM13,,-0.044,0.052,1.039,-5.92,4.7,91.797,1.89,0.577,150.172,-2713,-4795,-102,33.21,,,,,,,,,,,,,,,
 22:02:13.912,COM13,,-0.077,0.049,1.014,-6.226,0.488,92.346,1.868,0.593,152.007,-2683,-4541,-146,33.22,,,,,,,,,,,,,,,
 22:02:13.940,COM13,,-0.083,0.021,1.022,-6.836,0,88.44,1.829,0.544,153.853,-2728,-4271,-178,33.23,,,,,,,,,,,,,,,
 22:02:13.947,COM13,,-0.031,0.008,1.013,-4.517,-0.916,91.431,1.818,0.472,155.643,-2680,-4026,-185,33.2,,,,,,,,,,,,,,,
 22:02:13.979,COM13,,-0.063,0.067,0.972,-5.432,-1.953,89.294,1.802,0.385,157.456,-2712,-3810,-268,33.24,,,,,,,,,,,,,,,
 22:02:14.009,COM13,,-0.015,0.062,0.964,-5.798,0.244,91.003,1.78,0.28,159.252,-2674,-3600,-343,33.21,,,,,,,,,,,,,,,
 22:02:14.011,COM13,,-0.037,0.035,0.942,-5.92,5.188,91.858,1.752,0.198,161.065,-2734,-3371,-398,33.25,,,,,,,,,,,,,,,
 22:02:14.041,COM13,,-0.047,0.076,0.993,-7.324,6.409,91.125,1.708,0.203,162.905,-2777,-3183,-506,33.21,,,,,,,,,,,,,,,
 22:02:14.047,COM13,,-0.051,-0.042,1.05,-5.981,4.028,89.966,1.67,0.247,164.734,-2751,-2986,-540,33.24,,,,,,,,,,,,,,,
 22:02:14.078,COM13,,-0.082,0.091,1.016,-5.493,0.488,91.553,1.648,0.264,166.547,-2802,-2881,-651,33.22,,,,,,,,,,,,,,,
 22:02:14.089,COM13,,-0.065,0.038,1.009,-6.104,0,90.759,1.62,0.22,168.371,-2803,-2698,-725,33.23,,,,,,,,,,,,,,,
 22:02:14.123,COM13,,-0.042,0.003,1.021,-5.188,-1.831,91.003,1.593,0.154,170.195,-2735,-2481,-777,33.23,,,,,,,,,,,,,,,
 22:02:14.125,COM13,,-0.036,0.102,0.929,-5.92,0.61,93.506,1.566,0.06,172.013,-2871,-2323,-872,33.21,,,,,,,,,,,,,,,
 22:02:14.153,COM13,,-0.021,0.03,0.977,-6.897,3.174,91.37,1.522,-0.005,173.87,-2919,-2181,-938,33.26,,,,,,,,,,,,,,,
 22:02:14.184,COM13,,-0.016,-0.08,0.99,-6.104,4.944,90.576,1.478,-0.022,175.71,-2965,-2075,-1063,33.24,,,,,,,,,,,,,,,
 22:02:14.190,COM13,,-0.087,0.133,0.999,-5.188,5.31,90.82,1.445,-0.005,177.534,-2963,-1911,-1137,33.24,,,,,,,,,,,,,,,
 22:02:14.218,COM13,,-0.076,-0.007,1.093,-6.165,0.305,90.027,1.412,0.033,179.352,-3017,-1783,-1255,33.2,,,,,,,,,,,,,,,
 22:02:14.225,COM13,,-0.05,0.027,0.977,-5.371,-3.052,90.942,1.379,0,-178.835,-3010,-1658,-1334,33.2,,,,,,,,,,,,,,,
 22:02:14.279,COM13,,-0.031,0.099,0.964,-5.676,0,92.773,1.346,-0.104,-177.023,-2985,-1561,-1414,33.22,,,,,,,,,,,,,,,
 22:02:14.283,COM13,,-0.036,0.008,1.032,-6.897,-0.916,91.797,1.296,-0.176,-175.177,-3058,-1391,-1517,33.2,,,,,,,,,,,,,,,
 22:02:14.287,COM13,,-0.013,0.026,0.904,-4.639,2.075,95.398,1.269,-0.247,-173.331,-3123,-1283,-1592,33.2,,,,,,,,,,,,,,,
 22:02:14.313,COM13,,-0.026,0.006,0.998,-6.531,5.31,89.905,1.225,-0.286,-171.442,-3167,-1202,-1684,33.2,,,,,,,,,,,,,,,
 22:02:14.347,COM13,,-0.083,0.062,1.01,-7.568,5.615,91.919,1.154,-0.253,-169.612,-3154,-1087,-1744,33.23,,,,,,,,,,,,,,,
 22:02:14.350,COM13,,-0.06,0.053,1.062,-5.676,2.014,95.825,1.115,-0.203,-167.778,-3208,-1002,-1847,33.22,,,,,,,,,,,,,,,
 22:02:14.378,COM13,,-0.054,-0.021,1.012,-6.287,-2.869,91.797,1.071,-0.198,-165.877,-3259,-869,-1920,33.2,,,,,,,,,,,,,,,
 22:02:14.384,COM13,,-0.078,0.059,1.002,-7.08,-1.709,92.529,1.005,-0.286,-164.02,-3248,-754,-1992,33.25,,,,,,,,,,,,,,,
 22:02:14.416,COM13,,0.021,0.065,0.951,-6.409,-1.16,96.13,0.956,-0.374,-162.175,-3296,-617,-2070,33.24,,,,,,,,,,,,,,,
 22:02:14.449,COM13,,-0.012,-0.071,0.944,-3.967,2.502,95.154,0.934,-0.445,-160.269,-3401,-566,-2162,33.25,,,,,,,,,,,,,,,
 22:02:14.452,COM13,,-0.059,-0.001,0.98,-6.531,6.531,89.05,0.879,-0.461,-158.362,-3440,-394,-2209,33.22,,,,,,,,,,,,,,,
 22:02:14.480,COM13,,-0.038,0.129,1.029,-8.179,5.005,90.637,0.797,-0.401,-156.544,-3430,-294,-2259,33.25,,,,,,,,,,,,,,,
 22:02:14.486,COM13,,-0.09,0.001,1.062,-5.737,1.099,97.534,0.747,-0.341,-154.737,-3500,-210,-2370,33.21,,,,,,,,,,,,,,,
 22:02:14.515,COM13,,-0.054,-0.034,1.006,-6.592,-2.625,92.407,0.692,-0.346,-152.814,-3577,-75,-2438,33.23,,,,,,,,,,,,,,,
 22:02:14.546,COM13,,-0.042,0.041,0.984,-7.08,-1.831,89.905,0.621,-0.417,-150.941,-3566,81,-2498,33.2,,,,,,,,,,,,,,,
 22:02:14.551,COM13,,-0.01,0.059,0.968,-5.737,-0.61,96.008,0.571,-0.489,-149.134,-3604,238,-2566,33.24,,,,,,,,,,,,,,,
 22:02:14.579,COM13,,-0.016,-0.056,0.962,-5.31,1.77,93.811,0.533,-0.544,-147.239,-3676,329,-2656,33.21,,,,,,,,,,,,,,,
 22:02:14.597,COM13,,-0.024,-0.072,0.944,-5.981,6.531,87.158,0.472,-0.555,-145.355,-3623,443,-2699,33.22,,,,,,,,,,,,,,,
 22:02:14.626,COM13,,-0.036,0.13,1.058,-5.798,4.395,89.172,0.412,-0.483,-143.575,-3575,520,-2736,33.2,,,,,,,,,,,,,,,
 22:02:14.634,COM13,,-0.086,0.043,1.012,-4.517,2.136,95.947,0.39,-0.423,-141.795,-3706,590,-2800,33.24,,,,,,,,,,,,,,,
 22:02:14.667,COM13,,-0.104,-0.016,1.051,-6.531,-0.366,93.506,0.346,-0.401,-139.905,-3841,705,-2862,33.24,,,,,,,,,,,,,,,
 22:02:14.670,COM13,,0.001,0.018,1.008,-7.446,-2.747,90.21,0.269,-0.423,-138.021,-3775,779,-2916,33.23,,,,,,,,,,,,,,,
 22:02:14.701,COM13,,-0.029,0.068,0.929,-5.554,-1.587,96.13,0.236,-0.489,-136.203,-3773,970,-2944,33.2,,,,,,,,,,,,,,,
 22:02:14.706,COM13,,-0.005,-0.078,0.926,-5.981,3.662,94.604,0.181,-0.544,-134.28,-3817,1021,-3028,33.19,,,,,,,,,,,,,,,
 22:02:14.738,COM13,,-0.057,-0.076,1.04,-5.798,7.629,87.097,0.121,-0.5,-132.385,-3801,1175,-3046,33.21,,,,,,,,,,,,,,,
 22:02:14.768,COM13,,-0.016,0.065,1.042,-4.7,1.221,88.928,0.088,-0.368,-130.638,-3821,1309,-3115,33.24,,,,,,,,,,,,,,,
 22:02:14.774,COM13,,-0.057,0,0.964,-5.066,1.465,88.989,0.049,-0.368,-128.859,-3816,1361,-3164,33.2,,,,,,,,,,,,,,,
 22:02:14.805,COM13,,-0.112,-0.019,0.994,-5.31,3.723,87.891,0.005,-0.363,-127.079,-3809,1450,-3210,33.23,,,,,,,,,,,,,,,
 22:02:14.808,COM13,,0.01,0.152,1.077,-6.287,-0.977,93.384,-0.038,-0.302,-125.316,-3853,1582,-3270,33.24,,,,,,,,,,,,,,,
 22:02:14.837,COM13,,-0.047,0.034,0.998,-6.531,-4.517,95.398,-0.082,-0.341,-123.448,-3809,1694,-3323,33.23,,,,,,,,,,,,,,,
 22:02:14.869,COM13,,-0.075,-0.054,0.883,-6.897,1.038,96.008,-0.143,-0.445,-121.536,-3840,1828,-3377,33.24,,,,,,,,,,,,,,,
 22:02:14.874,COM13,,0.032,-0.015,0.971,-5.798,7.568,94.849,-0.181,-0.439,-119.614,-3887,1877,-3429,33.23,,,,,,,,,,,,,,,
 22:02:14.903,COM13,,-0.076,-0.035,1.047,-5.31,5.615,92.59,-0.214,-0.302,-117.719,-3916,1999,-3474,33.21,,,,,,,,,,,,,,,
 22:02:14.907,COM13,,-0.09,-0.051,1.049,-5.798,1.892,88.135,-0.269,-0.209,-115.862,-3929,2072,-3516,33.19,,,,,,,,,,,,,,,
 22:02:14.936,COM13,,-0.044,-0.074,1.014,-5.188,-1.404,83.069,-0.319,-0.176,-114.099,-3796,2208,-3536,33.24,,,,,,,,,,,,,,,
 22:02:14.995,COM13,,0.021,0.096,0.943,-1.343,-0.366,88.684,-0.28,-0.214,-112.434,-3857,2263,-3582,33.22,,,,,,,,,,,,,,,
 22:02:15.000,COM13,,-0.056,0.058,0.979,-8.362,3.296,89.05,-0.374,-0.231,-110.66,-3916,2360,-3605,33.22,,,,,,,,,,,,,,,
 22:02:15.003,COM13,,-0.095,-0.069,1.002,-5.859,3.479,87.891,-0.417,-0.176,-108.875,-3813,2473,-3645,33.24,,,,,,,,,,,,,,,
 22:02:15.029,COM13,,0.004,0.007,1.03,-4.761,2.441,88.867,-0.439,-0.115,-107.117,-3799,2578,-3685,33.24,,,,,,,,,,,,,,,
 22:02:15.034,COM13,,-0.067,-0.008,0.987,-4.639,0.977,87.83,-0.456,-0.071,-105.337,-3749,2607,-3736,33.2,,,,,,,,,,,,,,,
 22:02:15.063,COM13,,-0.082,0.007,1.003,-5.188,1.465,86.365,-0.489,-0.06,-103.574,-3719,2762,-3767,33.24,,,,,,,,,,,,,,,
 22:02:15.069,COM13,,-0.013,-0.008,1.031,-6.226,-0.671,86.67,-0.538,-0.033,-101.849,-3699,2872,-3794,33.25,,,,,,,,,,,,,,,
 22:02:15.094,COM13,,-0.044,-0.042,0.943,-3.54,-0.488,87.097,-0.538,-0.049,-100.113,-3700,3043,-3822,33.22,,,,,,,,,,,,,,,
 22:02:15.124,COM13,,-0.06,0.04,0.989,-5.92,3.357,85.876,-0.582,-0.06,-98.366,-3701,3114,-3838,33.22,,,,,,,,,,,,,,,
 22:02:15.127,COM13,,-0.01,0.042,1.001,-5.676,2.686,87.524,-0.615,0.005,-96.647,-3752,3138,-3863,33.24,,,,,,,,,,,,,,,
 22:02:15.156,COM13,,-0.077,-0.086,1.042,-6.592,1.282,86.06,-0.659,0.055,-94.894,-3730,3256,-3865,33.27,,,,,,,,,,,,,,,
 22:02:15.187,COM13,,-0.088,-0.011,0.997,-4.15,-1.282,85.449,-0.67,0.077,-93.17,-3687,3337,-3891,33.21,,,,,,,,,,,,,,,
 22:02:15.193,COM13,,0,0.014,0.974,-4.395,-0.305,84.656,-0.687,0.06,-91.461,-3670,3457,-3918,33.24,,,,,,,,,,,,,,,
 22:02:15.223,COM13,,-0.034,0.061,0.976,-6.165,1.282,86.792,-0.725,0.055,-89.764,-3664,3576,-3969,33.24,,,,,,,,,,,,,,,
 22:02:15.227,COM13,,-0.059,-0.077,0.992,-3.845,3.174,85.693,-0.725,0.082,-88.028,-3639,3764,-4008,33.23,,,,,,,,,,,,,,,
 22:02:15.254,COM13,,-0.038,0.031,1.006,-7.324,2.747,85.693,-0.791,0.143,-86.309,-3690,3804,-4054,33.25,,,,,,,,,,,,,,,
 22:02:15.288,COM13,,-0.089,-0.04,1.001,-3.723,1.892,85.815,-0.78,0.198,-84.595,-3593,3967,-4092,33.2,,,,,,,,,,,,,,,
 22:02:15.291,COM13,,-0.023,0.025,1.021,-4.272,0.183,86.975,-0.78,0.242,-82.875,-3618,4063,-4124,33.22,,,,,,,,,,,,,,,
 22:02:15.320,COM13,,-0.048,0.005,0.989,-4.15,-0.183,87.891,-0.78,0.247,-81.134,-3523,4123,-4183,33.21,,,,,,,,,,,,,,,
 22:02:15.326,COM13,,-0.084,0.046,0.976,-5.066,1.404,87.585,-0.786,0.247,-79.371,-3485,4259,-4241,33.22,,,,,,,,,,,,,,,
 22:02:15.357,COM13,,-0.042,-0.003,1.001,-7.263,1.526,88.623,-0.835,0.28,-77.618,-3502,4356,-4296,33.24,,,,,,,,,,,,,,,
 22:02:15.389,COM13,,-0.034,0.006,0.988,-5.92,2.808,89.05,-0.857,0.319,-75.844,-3433,4503,-4350,33.21,,,,,,,,,,,,,,,
 22:02:15.395,COM13,,-0.092,0.031,1.017,-7.263,1.343,90.637,-0.895,0.379,-74.059,-3420,4574,-4389,33.22,,,,,,,,,,,,,,,
 22:02:15.425,COM13,,-0.053,-0.031,0.993,-6.348,0.244,92.041,-0.923,0.417,-72.246,-3469,4675,-4433,33.25,,,,,,,,,,,,,,,
 22:02:15.427,COM13,,-0.068,0.001,1.004,-7.019,-0.122,90.515,-0.961,0.428,-70.4,-3403,4782,-4500,33.23,,,,,,,,,,,,,,,
 22:02:15.455,COM13,,-0.036,0.022,0.949,-6.287,2.319,92.896,-0.978,0.439,-68.588,-3423,4880,-4560,33.23,,,,,,,,,,,,,,,
 22:02:15.489,COM13,,-0.047,0,1.007,-6.592,3.601,92.834,-1,0.5,-66.725,-3344,5060,-4618,33.22,,,,,,,,,,,,,,,
 22:02:15.492,COM13,,-0.096,-0.004,0.988,-8.057,3.113,93.14,-1.049,0.582,-64.869,-3348,5093,-4676,33.2,,,,,,,,,,,,,,,
 22:02:15.521,COM13,,-0.08,-0.009,1.043,-6.592,1.038,93.628,-1.071,0.659,-63.001,-3354,5179,-4746,33.24,,,,,,,,,,,,,,,
 22:02:15.526,COM13,,-0.067,0.011,0.996,-5.188,-1.404,96.313,-1.055,0.698,-61.128,-3268,5338,-4819,33.24,,,,,,,,,,,,,,,
 22:02:15.559,COM13,,-0.033,-0.009,0.937,-7.019,2.563,95.154,-1.082,0.687,-59.194,-3341,5429,-4876,33.24,,,,,,,,,,,,,,,
 22:02:15.591,COM13,,-0.093,-0.013,1.004,-7.69,3.601,94.116,-1.115,0.753,-57.288,-3312,5555,-4961,33.22,,,,,,,,,,,,,,,
 22:02:15.595,COM13,,-0.067,-0.009,0.988,-5.676,4.028,96.497,-1.11,0.846,-55.404,-3289,5653,-5028,33.22,,,,,,,,,,,,,,,
 22:02:15.615,COM13,,-0.056,0.011,1.037,-6.653,3.052,95.459,-1.121,0.945,-53.47,-3247,5683,-5109,33.23,,,,,,,,,,,,,,,
 22:02:15.644,COM13,,-0.122,-0.047,1.005,-6.592,-0.854,94.91,-1.132,1.022,-51.559,-3193,5817,-5173,33.24,,,,,,,,,,,,,,,
 22:02:15.648,COM13,,-0.066,0.002,0.968,-5.92,1.221,94.666,-1.126,1.027,-49.658,-3202,5881,-5255,33.22,,,,,,,,,,,,,,,
 22:02:15.677,COM13,,-0.046,0.001,1.014,-5.188,1.221,96.313,-1.104,1.071,-47.758,-3169,5972,-5308,33.25,,,,,,,,,,,,,,,
 22:02:15.708,COM13,,-0.076,-0.024,0.98,-6.47,1.465,94.482,-1.11,1.115,-45.829,-3165,6120,-5404,33.23,,,,,,,,,,,,,,,
 22:02:15.713,COM13,,-0.089,0.002,0.981,-6.653,2.319,93.933,-1.121,1.165,-43.934,-3179,6261,-5507,33.22,,,,,,,,,,,,,,,
