Time,Device name,Chip Time(),Acceleration X(g),Acceleration Y(g),Acceleration Z(g),Angular velocity X(°/s),Angular velocity Y(°/s),Angular velocity Z(°/s),Angle X(°),Angle Y(°),Angle Z(°),Magnetic field X(ʯt),Magnetic field Y(ʯt),Magnetic field Z(ʯt),Temperature(℃),Quaternions 0(),Quaternions 1(),Quaternions 2(),Quaternions 3()
 12:21:15.753,ef:e4:2c:bf:73:a9, 2015-01-01 00:28:30.435, 0.913, 0.022, 1.323, 0.061, -1.16, 0, 1.45, -44.313, 34.222, 0.000, 0.000, -3211.264, 25.1, 0.88339, 0.12238, -0.35751, 0.27695,
 12:21:15.767,c3:a3:c5:ed:f8:8e, 2015-01-01 00:31:10.865, -0.668, -0.031, -0.834, 0.427, -60.242, -0.244, -177.654, 26.895, -43.363, 0.000, 0.000, -3211.264, 24.95, 0.05511, -0.92511, 0.36365, 0.09363,
 12:21:15.797,c3:a3:c5:ed:f8:8e, 2015-01-01 00:31:10.865, -0.702, -0.033, -0.806, 0.427, -61.096, -0.305, -177.556, 30.048, -43.462, 0.000, 0.000, -3211.264, 24.95, 0.05511, -0.92511, 0.36365, 0.09363,
 12:21:15.872,ef:e4:2c:bf:73:a9, 2015-01-01 00:28:30.820, 0.911, 0.024, 1.322, -0.061, 1.831, 0, 1.434, -44.006, 34.228, 0.000, 0.000, -3211.264, 25.1, 0.88339, 0.12238, -0.35751, 0.27695,
 12:21:15.872,ef:e4:2c:bf:73:a9, 2015-01-01 00:28:30.820, 0.902, 0.025, 1.322, 0.061, 4.211, 0, 1.417, -43.572, 34.239, 0.000, 0.000, -3211.264, 25.1, 0.88339, 0.12238, -0.35751, 0.27695,
 12:21:15.888,c3:a3:c5:ed:f8:8e, 2015-01-01 00:31:10.865, -0.761, -0.034, -0.782, 0.427, -61.768, -0.183, -177.44, 33.239, -43.539, 0.000, 0.000, -3211.264, 24.95, 0.05511, -0.92511, 0.36365, 0.09363,
 12:21:15.888,c3:a3:c5:ed:f8:8e, 2015-01-01 00:31:10.865, -0.795, -0.032, -0.734, 0.427, -61.707, -0.183, -177.314, 36.447, -43.599, 0.000, 0.000, -3211.264, 24.95, 0.05511, -0.92511, 0.36365, 0.09363,
 12:21:15.902,ef:e4:2c:bf:73:a9, 2015-01-01 00:28:30.820, 0.895, 0.022, 1.323, -0.061, 7.141, 0, 1.39, -43.022, 34.255, 0.000, 0.000, -3211.264, 25.1, 0.88339, 0.12238, -0.35751, 0.27695,
 12:21:15.962,ef:e4:2c:bf:73:a9, 2015-01-01 00:28:30.820, 0.89, 0.021, 1.324, -0.122, 8.789, 0, 1.368, -42.374, 34.277, 0.000, 0.000, -3211.264, 25.1, 0.88339, 0.12238, -0.35751, 0.27695,
 12:21:15.976,c3:a3:c5:ed:f8:8e, 2015-01-01 00:31:10.865, -0.816, -0.031, -0.704, 0.427, -60.059, -0.183, -177.171, 39.589, -43.643, 0.000, 0.000, -3211.264, 24.95, 0.13968, -0.87643, 0.35883, 0.28897,
 12:21:16.006,c3:a3:c5:ed:f8:8e, 2015-01-01 00:31:11.255, -0.858, -0.032, -0.676, 0.427, -60.73, -0.244, -177.012, 42.671, -43.654, 0.000, 0.000, -3211.264, 24.95, 0.13968, -0.87643, 0.35883, 0.28897,
 12:21:16.036,c3:a3:c5:ed:f8:8e, 2015-01-01 00:31:11.255, -0.913, -0.032, -0.632, 0.488, -63.538, -0.183, -176.825, 45.879, -43.632, 0.000, 0.000, -3211.264, 24.95, 0.13968, -0.87643, 0.35883, 0.28897,
 12:21:16.052,ef:e4:2c:bf:73:a9, 2015-01-01 00:28:30.820, 0.872, 0.022, 1.325, -0.183, 11.902, 0, 1.335, -41.622, 34.299, 0.000, 0.000, -3211.264, 25.1, 0.88339, 0.12238, -0.35751, 0.27695,
 12:21:16.112,ef:e4:2c:bf:73:a9, 2015-01-01 00:28:30.820, 0.858, 0.023, 1.326, -0.122, 13.733, 0, 1.302, -40.754, 34.321, 0.000, 0.000, -3211.264, 25.1, 0.88339, 0.12238, -0.35751, 0.27695,
 12:21:16.114,ef:e4:2c:bf:73:a9, 2015-01-01 00:28:30.820, 0.853, 0.021, 1.327, -0.183, 15.076, 0, 1.269, -39.831, 34.349, 0.000, 0.000, -3211.264, 25.1, 0.88339, 0.12238, -0.35751, 0.27695,
 12:21:16.142,ef:e4:2c:bf:73:a9, 2015-01-01 00:28:30.820, 0.826, 0.02, 1.328, -0.183, 16.724, 0, 1.236, -38.853, 34.376, 0.000, 0.000, -3211.264, 25.1, 0.8981, 0.10956, -0.31937, 0.28156,
 12:21:16.157,c3:a3:c5:ed:f8:8e, 2015-01-01 00:31:11.255, -0.92, -0.031, -0.574, 0.488, -59.509, -0.183, -176.605, 49.032, -43.577, 0.000, 0.000, -3211.264, 24.95, 0.13968, -0.87643, 0.35883, 0.28897,
 12:21:16.159,c3:a3:c5:ed:f8:8e, 2015-01-01 00:31:11.255, -0.952, -0.031, -0.553, 0.488, -59.448, -0.183, -176.364, 52.07, -43.489, 0.000, 0.000, -3211.264, 24.95, 0.13968, -0.87643, 0.35883, 0.28897,
 12:21:16.218,c3:a3:c5:ed:f8:8e, 2015-01-01 00:31:11.255, -1, -0.031, -0.498, 0.427, -63.477, -0.244, -176.067, 55.217, -43.341, 0.000, 0.000, -3211.264, 24.95, 0.13968, -0.87643, 0.35883, 0.28897,
 12:21:16.232,ef:e4:2c:bf:73:a9, 2015-01-01 00:28:31.210, 0.804, 0.021, 1.329, -0.244, 19.775, 0, 1.198, -37.76, 34.404, 0.000, 0.000, -3211.264, 25.1, 0.8981, 0.10956, -0.31937, 0.28156,
 12:21:16.248,c3:a3:c5:ed:f8:8e, 2015-01-01 00:31:11.255, -1.011, -0.03, -0.44, 0.427, -62.256, -0.244, -175.704, 58.414, -43.11, 0.000, 0.000, -3211.264, 24.95, 0.13968, -0.87643, 0.35883, 0.28897,
 12:21:16.263,ef:e4:2c:bf:73:a9, 2015-01-01 00:28:31.210, 0.794, 0.022, 1.328, -0.244, 20.02, 0, 1.165, -36.628, 34.437, 0.000, 0.000, -3211.264, 25.1, 0.8981, 0.10956, -0.31937, 0.28156,
 12:21:16.309,c3:a3:c5:ed:f8:8e, 2015-01-01 00:31:11.255, -1.013, -0.031, -0.397, 0.488, -58.594, -0.183, -175.281, 61.441, -42.819, 0.000, 0.000, -3211.264, 24.95, 0.13968, -0.87643, 0.35883, 0.28897,
 12:21:16.352,ef:e4:2c:bf:73:a9, 2015-01-01 00:28:31.210, 0.785, 0.022, 1.331, -0.305, 20.935, 0, 1.126, -35.486, 34.464, 0.000, 0.000, -3211.264, 25.1, 0.8981, 0.10956, -0.31937, 0.28156,
 12:21:16.352,ef:e4:2c:bf:73:a9, 2015-01-01 00:28:31.210, 0.739, 0.021, 1.331, -0.244, 22.827, 0, 1.093, -34.288, 34.492, 0.000, 0.000, -3211.264, 25.1, 0.8981, 0.10956, -0.31937, 0.28156,
 12:21:16.397,c3:a3:c5:ed:f8:8e, 2015-01-01 00:31:11.255, -1.051, -0.031, -0.37, 0.488, -59.875, 0, -174.771, 64.44, -42.446, 0.000, 0.000, -3211.264, 24.95, 0.2247, -0.78448, 0.33038, 0.47415,
 12:21:16.399,c3:a3:c5:ed:f8:8e, 2015-01-01 00:31:11.255, -1.079, -0.031, -0.292, 0.488, -62.927, 0, -174.106, 67.566, -41.902, 0.000, 0.000, -3211.264, 24.95, 0.2247, -0.78448, 0.33038, 0.47415,
 12:21:16.457,c3:a3:c5:ed:f8:8e, 2015-01-01 00:31:11.670, -1.08, -0.029, -0.241, 0.427, -59.937, 0, -173.243, 70.637, -41.155, 0.000, 0.000, -3211.264, 24.95, 0.2247, -0.78448, 0.33038, 0.47415,
 12:21:16.472,ef:e4:2c:bf:73:a9, 2015-01-01 00:28:31.210, 0.722, 0.021, 1.329, -0.305, 24.597, 0, 1.06, -32.997, 34.519, 0.000, 0.000, -3211.264, 25.1, 0.8981, 0.10956, -0.31937, 0.28156,
 12:21:16.472,ef:e4:2c:bf:73:a9, 2015-01-01 00:28:31.210, 0.713, 0.021, 1.328, -0.305, 23.804, 0, 1.022, -31.729, 34.547, 0.000, 0.000, -3211.264, 25.1, 0.8981, 0.10956, -0.31937, 0.28156,
 12:21:16.487,c3:a3:c5:ed:f8:8e, 2015-01-01 00:31:11.670, -1.062, -0.025, -0.198, 0.427, -58.472, 0, -172.128, 73.548, -40.15, 0.000, 0.000, -3211.264, 24.95, 0.2247, -0.78448, 0.33038, 0.47415,
 12:21:16.578,c3:a3:c5:ed:f8:8e, 2015-01-01 00:31:11.670, -1.106, -0.031, -0.172, 0.488, -60.73, 0, -170.491, 76.509, -38.611, 0.000, 0.000, -3211.264, 24.95, 0.2247, -0.78448, 0.33038, 0.47415,
 12:21:16.623,ef:e4:2c:bf:73:a9, 2015-01-01 00:28:31.210, 0.703, 0.021, 1.329, -0.366, 24.963, 0, 0.994, -30.465, 34.574, 0.000, 0.000, -3211.264, 25.1, 0.8981, 0.10956, -0.31937, 0.28156,
 12:21:16.623,ef:e4:2c:bf:73:a9, 2015-01-01 00:28:31.210, 0.641, 0.02, 1.329, -0.366, 27.527, 0, 0.961, -29.119, 34.601, 0.000, 0.000, -3211.264, 25.1, 0.8981, 0.10956, -0.31937, 0.28156,
 12:21:16.638,c3:a3:c5:ed:f8:8e, 2015-01-01 00:31:11.670, -1.112, -0.03, -0.078, 0.549, -63.171, 0, -167.734, 79.629, -35.936, 0.000, 0.000, -3211.264, 24.95, 0.2247, -0.78448, 0.33038, 0.47415,
 12:21:16.638,c3:a3:c5:ed:f8:8e, 2015-01-01 00:31:11.670, -1.074, -0.03, -0.033, 0.427, -59.021, 0, -162.949, 82.568, -31.229, 0.000, 0.000, -3211.264, 24.95, 0.2247, -0.78448, 0.33038, 0.47415,
 12:21:16.653,ef:e4:2c:bf:73:a9, 2015-01-01 00:28:31.210, 0.63, 0.02, 1.322, -0.366, 27.893, 0, 0.928, -27.702, 34.634, 0.000, 0.000, -3211.264, 25.1, 0.92426, 0.08139, -0.23416, 0.29016,
 12:21:16.683,ef:e4:2c:bf:73:a9, 2015-01-01 00:28:31.210, 0.629, 0.019, 1.321, -0.366, 26.672, 0, 0.901, -26.362, 34.656, 0.000, 0.000, -3211.264, 25.1, 0.92426, 0.08139, -0.23416, 0.29016,
 12:21:16.698,c3:a3:c5:ed:f8:8e, 2015-01-01 00:31:11.670, -1.081, -0.029, -0.003, 0.366, -60.12, 0, -152.836, 85.287, -21.171, 0.000, 0.000, -3211.264, 24.95, 0.2247, -0.78448, 0.33038, 0.47415,
 12:21:16.713,ef:e4:2c:bf:73:a9, 2015-01-01 00:28:31.715, 0.584, 0.021, 1.32, -0.366, 29.663, 0, 0.868, -24.994, 34.684, 0.000, 0.000, -3211.264, 25.1, 0.92426, 0.08139, -0.23416, 0.29016,
 12:21:16.773,ef:e4:2c:bf:73:a9, 2015-01-01 00:28:31.715, 0.542, 0.021, 1.313, -0.366, 31.677, 0, 0.84, -23.5, 34.711, 0.000, 0.000, -3211.264, 25.1, 0.92426, 0.08139, -0.23416, 0.29016,
 12:21:16.788,c3:a3:c5:ed:f8:8e, 2015-01-01 00:31:11.670, -1.117, -0.028, 0.05, 0.488, -65.43, 0, -116.647, 87.632, 15.079, 0.000, 0.000, -3211.264, 24.95, 0.29828, -0.65665, 0.27954, 0.6337,
 12:21:16.818,c3:a3:c5:ed:f8:8e, 2015-01-01 00:31:12.055, -1.086, -0.028, 0.146, 0.549, -61.218, 0, -45.401, 87.045, 86.539, 0.000, 0.000, -3211.264, 24.95, 0.29828, -0.65665, 0.27954, 0.6337,
 12:21:16.833,ef:e4:2c:bf:73:a9, 2015-01-01 00:28:31.715, 0.546, 0.02, 1.307, -0.305, 28.931, 0, 0.818, -22.061, 34.733, 0.000, 0.000, -3211.264, 25.1, 0.92426, 0.08139, -0.23416, 0.29016,
 12:21:16.894,ef:e4:2c:bf:73:a9, 2015-01-01 00:28:31.715, 0.507, 0.017, 1.307, -0.366, 28.992, 0, 0.797, -20.704, 34.761, 0.000, 0.000, -3211.264, 25.1, 0.92426, 0.08139, -0.23416, 0.29016,
 12:21:16.908,c3:a3:c5:ed:f8:8e, 2015-01-01 00:31:12.055, -1.053, -0.028, 0.165, 0.427, -58.228, 0, -22.758, 84.584, 109.21, 0.000, 0.000, -3211.264, 24.95, 0.29828, -0.65665, 0.27954, 0.6337,
 12:21:16.908,c3:a3:c5:ed:f8:8e, 2015-01-01 00:31:12.055, -1.074, -0.025, 0.216, 0.427, -64.148, 0, -14.568, 81.722, 117.444, 0.000, 0.000, -3211.264, 24.95, 0.29828, -0.65665, 0.27954, 0.6337,
 12:21:16.954,ef:e4:2c:bf:73:a9, 2015-01-01 00:28:31.715, 0.457, 0.018, 1.296, -0.305, 32.776, 0, 0.775, -19.243, 34.783, 0.000, 0.000, -3211.264, 25.1, 0.92426, 0.08139, -0.23416, 0.29016,
 12:21:16.954,ef:e4:2c:bf:73:a9, 2015-01-01 00:28:31.715, 0.448, 0.02, 1.287, -0.366, 31.921, 0, 0.753, -17.743, 34.805, 0.000, 0.000, -3211.264, 25.1, 0.92426, 0.08139, -0.23416, 0.29016,
 12:21:16.968,c3:a3:c5:ed:f8:8e, 2015-01-01 00:31:12.055, -1.058, -0.025, 0.288, 0.488, -65.369, 0, -10.437, 78.591, 121.63, 0.000, 0.000, -3211.264, 24.95, 0.29828, -0.65665, 0.27954, 0.6337,
 12:21:17.029,c3:a3:c5:ed:f8:8e, 2015-01-01 00:31:12.055, -1.002, -0.025, 0.346, 0.366, -58.594, 0, -8.212, 75.646, 123.904, 0.000, 0.000, -3211.264, 24.95, 0.29828, -0.65665, 0.27954, 0.6337,
 12:21:17.043,ef:e4:2c:bf:73:a9, 2015-01-01 00:28:31.715, 0.447, 0.02, 1.283, -0.305, 29.114, 0, 0.731, -16.381, 34.827, 0.000, 0.000, -3211.264, 25.1, 0.94455, 0.04761, -0.1308, 0.29727,
 12:21:17.088,c3:a3:c5:ed:f8:8e, 2015-01-01 00:31:12.055, -0.997, -0.025, 0.376, 0.427, -60.974, 0, -6.784, 72.784, 125.37, 0.000, 0.000, -3211.264, 24.95, 0.29828, -0.65665, 0.27954, 0.6337,
 12:21:17.089,c3:a3:c5:ed:f8:8e, 2015-01-01 00:31:12.055, -0.999, -0.024, 0.432, 0.488, -65.063, 0, -5.707, 69.708, 126.491, 0.000, 0.000, -3211.264, 24.95, 0.29828, -0.65665, 0.27954, 0.6337,
 12:21:17.103,ef:e4:2c:bf:73:a9, 2015-01-01 00:28:31.715, 0.387, 0.019, 1.278, -0.366, 30.518, 0, 0.714, -15.04, 34.849, 0.000, 0.000, -3211.264, 25.1, 0.94455, 0.04761, -0.1308, 0.29727,
 12:21:17.132,ef:e4:2c:bf:73:a9, 2015-01-01 00:28:32.105, 0.35, 0.016, 1.263, -0.366, 32.776, 0, 0.692, -13.59, 34.871, 0.000, 0.000, -3211.264, 25.1, 0.94455, 0.04761, -0.1308, 0.29727,
 12:21:17.161,ef:e4:2c:bf:73:a9, 2015-01-01 00:28:32.105, 0.355, 0.018, 1.251, -0.366, 29.175, 0, 0.67, -12.2, 34.893, 0.000, 0.000, -3211.264, 25.1, 0.94455, 0.04761, -0.1308, 0.29727,
 12:21:17.252,ef:e4:2c:bf:73:a9, 2015-01-01 00:28:32.105, 0.33, 0.02, 1.245, -0.366, 28.748, 0, 0.654, -10.942, 34.915, 0.000, 0.000, -3211.264, 25.1, 0.94455, 0.04761, -0.1308, 0.29727,
 12:21:17.267,c3:a3:c5:ed:f8:8e, 2015-01-01 00:31:12.445, -0.956, -0.023, 0.518, 0.427, -60.242, 0, -4.911, 66.61, 127.332, 0.000, 0.000, -3211.264, 24.95, 0.3476, -0.5134, 0.21365, 0.75488,
 12:21:17.267,c3:a3:c5:ed:f8:8e, 2015-01-01 00:31:12.445, -0.896, -0.023, 0.534, 0.366, -57.19, 0, -4.345, 63.759, 127.936, 0.000, 0.000, -3211.264, 24.95, 0.3476, -0.5134, 0.21365, 0.75488,
 12:21:17.270,c3:a3:c5:ed:f8:8e, 2015-01-01 00:31:12.445, -0.904, -0.022, 0.566, 0.488, -63.11, 0, -3.884, 60.875, 128.43, 0.000, 0.000, -3211.264, 24.95, 0.3476, -0.5134, 0.21365, 0.75488,
 12:21:17.296,c3:a3:c5:ed:f8:8e, 2015-01-01 00:31:12.445, -0.87, -0.023, 0.632, 0.549, -65.369, -0.305, -3.483, 57.728, 128.864, 0.000, 0.000, -3211.264, 24.95, 0.3476, -0.5134, 0.21365, 0.75488,
 12:21:17.312,ef:e4:2c:bf:73:a9, 2015-01-01 00:28:32.105, 0.275, 0.018, 1.233, -0.305, 32.227, 0, 0.643, -9.619, 34.931, 0.000, 0.000, -3211.264, 25.1, 0.94455, 0.04761, -0.1308, 0.29727,
 12:21:17.312,ef:e4:2c:bf:73:a9, 2015-01-01 00:28:32.105, 0.266, 0.016, 1.217, -0.366, 31.189, 0, 0.626, -8.24, 34.953, 0.000, 0.000, -3211.264, 25.1, 0.94455, 0.04761, -0.1308, 0.29727,
 12:21:17.372,ef:e4:2c:bf:73:a9, 2015-01-01 00:28:32.105, 0.276, 0.015, 1.206, -0.244, 27.222, 0, 0.615, -7.015, 34.969, 0.000, 0.000, -3211.264, 25.1, 0.94455, 0.04761, -0.1308, 0.29727,
 12:21:17.388,c3:a3:c5:ed:f8:8e, 2015-01-01 00:31:12.445, -0.805, -0.021, 0.685, 0.366, -57.373, -0.122, -3.175, 54.739, 129.194, 0.000, 0.000, -3211.264, 24.95, 0.3476, -0.5134, 0.21365, 0.75488,
 12:21:17.418,c3:a3:c5:ed:f8:8e, 2015-01-01 00:31:12.445, -0.769, -0.021, 0.685, 0.427, -57.678, -0.122, -2.933, 51.971, 129.468, 0.000, 0.000, -3211.264, 24.95, 0.3476, -0.5134, 0.21365, 0.75488,
 12:21:17.448,c3:a3:c5:ed:f8:8e, 2015-01-01 00:31:12.445, -0.778, -0.02, 0.743, 0.549, -66.589, -0.244, -2.708, 48.939, 129.721, 0.000, 0.000, -3211.264, 24.95, 0.3476, -0.5134, 0.21365, 0.75488,
 12:21:17.462,ef:e4:2c:bf:73:a9, 2015-01-01 00:28:32.105, 0.21, 0.017, 1.199, -0.366, 28.748, 0, 0.604, -5.845, 34.986, 0.000, 0.000, -3211.264, 25.1, 0.94455, 0.04761, -0.1308, 0.29727,
 12:21:17.508,c3:a3:c5:ed:f8:8e, 2015-01-01 00:31:12.445, -0.689, -0.02, 0.805, 0.488, -62.927, -0.305, -2.51, 45.78, 129.946, 0.000, 0.000, -3211.264, 24.95, 0.3476, -0.5134, 0.21365, 0.75488,
 12:21:17.522,ef:e4:2c:bf:73:a9, 2015-01-01 00:28:32.105, 0.181, 0.018, 1.178, -0.427, 31.067, 0, 0.588, -4.559, 35.008, 0.000, 0.000, -3211.264, 25.1, 0.95288, 0.01614, -0.03424, 0.30075,
 12:21:17.522,ef:e4:2c:bf:73:a9, 2015-01-01 00:28:32.105, 0.203, 0.016, 1.167, -0.366, 27.466, 0, 0.571, -3.34, 35.024, 0.000, 0.000, -3211.264, 25.1, 0.95288, 0.01614, -0.03424, 0.30075,
 12:21:17.552,ef:e4:2c:bf:73:a9, 2015-01-01 00:28:32.550, 0.187, 0.014, 1.158, -0.366, 26.001, 0, 0.56, -2.291, 35.041, 0.000, 0.000, -3211.264, 25.1, 0.95288, 0.01614, -0.03424, 0.30075,
 12:21:17.568,c3:a3:c5:ed:f8:8e, 2015-01-01 00:31:12.445, -0.621, -0.02, 0.808, 0.427, -56.396, -0.183, -2.351, 42.962, 130.122, 0.000, 0.000, -3211.264, 24.95, 0.38336, -0.35208, 0.14209, 0.84189,
 12:21:17.643,ef:e4:2c:bf:73:a9, 2015-01-01 00:28:32.550, 0.111, 0.014, 1.146, -0.488, 29.175, 0, 0.549, -1.176, 35.057, 0.000, 0.000, -3211.264, 25.1, 0.95288, 0.01614, -0.03424, 0.30075,
 12:21:17.659,c3:a3:c5:ed:f8:8e, 2015-01-01 00:31:12.860, -0.631, -0.018, 0.809, 0.488, -62.744, -0.183, -2.214, 40.106, 130.287, 0.000, 0.000, -3211.264, 24.95, 0.38336, -0.35208, 0.14209, 0.84189,
 12:21:17.659,c3:a3:c5:ed:f8:8e, 2015-01-01 00:31:12.860, -0.592, -0.018, 0.907, 0.488, -66.345, -0.183, -2.076, 36.87, 130.452, 0.000, 0.000, -3211.264, 24.95, 0.38336, -0.35208, 0.14209, 0.84189,
 12:21:17.672,ef:e4:2c:bf:73:a9, 2015-01-01 00:28:32.550, 0.123, 0.014, 1.122, -0.488, 26.55, 0, 0.533, -0.011, 35.074, 0.000, 0.000, -3211.264, 25.1, 0.95288, 0.01614, -0.03424, 0.30075,
 12:21:17.687,c3:a3:c5:ed:f8:8e, 2015-01-01 00:31:12.860, -0.475, -0.018, 0.919, 0.366, -58.533, -0.183, -1.961, 33.865, 130.589, 0.000, 0.000, -3211.264, 24.95, 0.38336, -0.35208, 0.14209, 0.84189,
 12:21:17.735,ef:e4:2c:bf:73:a9, 2015-01-01 00:28:32.550, 0.13, 0.016, 1.117, -0.366, 23.376, 0, 0.516, 0.961, 35.09, 0.000, 0.000, -3211.264, 25.1, 0.95288, 0.01614, -0.03424, 0.30075,
 12:21:17.763,ef:e4:2c:bf:73:a9, 2015-01-01 00:28:32.550, 0.079, 0.015, 1.105, -0.305, 25.696, 0, 0.511, 1.884, 35.101, 0.000, 0.000, -3211.264, 25.1, 0.95288, 0.01614, -0.03424, 0.30075,
 12:21:17.779,c3:a3:c5:ed:f8:8e, 2015-01-01 00:31:12.860, -0.456, -0.017, 0.898, 0.427, -61.462, -0.244, -1.868, 31.08, 130.704, 0.000, 0.000, -3211.264, 24.95, 0.38336, -0.35208, 0.14209, 0.84189,
 12:21:17.809,c3:a3:c5:ed:f8:8e, 2015-01-01 00:31:12.860, -0.429, -0.018, 0.94, 0.549, -68.237, -0.305, -1.769, 27.933, 130.82, 0.000, 0.000, -3211.264, 24.95, 0.38336, -0.35208, 0.14209, 0.84189,
 12:21:17.852,ef:e4:2c:bf:73:a9, 2015-01-01 00:28:32.550, 0.062, 0.012, 1.087, -0.427, 25.94, 0, 0.5, 2.9, 35.118, 0.000, 0.000, -3211.264, 25.1, 0.95297, -0.00452, 0.02863, 0.30148,
 12:21:17.882,ef:e4:2c:bf:73:a9, 2015-01-01 00:28:32.880, 0.07, 0.012, 1.072, -0.427, 20.874, 0, 0.489, 3.79, 35.129, 0.000, 0.000, -3211.264, 25.1, 0.95297, -0.00452, 0.02863, 0.30148,
 12:21:17.900,c3:a3:c5:ed:f8:8e, 2015-01-01 00:31:12.860, -0.355, -0.015, 0.991, 0.427, -60.12, -0.183, -1.681, 24.774, 130.93, 0.000, 0.000, -3211.264, 24.95, 0.38336, -0.35208, 0.14209, 0.84189,
 12:21:17.900,c3:a3:c5:ed:f8:8e, 2015-01-01 00:31:12.860, -0.284, -0.015, 0.975, 0.427, -57.739, -0.122, -1.609, 21.973, 131.023, 0.000, 0.000, -3211.264, 24.95, 0.38336, -0.35208, 0.14209, 0.84189,
 12:21:17.986,c3:a3:c5:ed:f8:8e, 2015-01-01 00:31:12.860, -0.273, -0.016, 0.984, 0.488, -63.904, -0.244, -1.544, 19.061, 131.111, 0.000, 0.000, -3211.264, 24.95, 0.40469, -0.1745, 0.06415, 0.89529,
 12:21:18.001,ef:e4:2c:bf:73:a9, 2015-01-01 00:28:32.880, 0.047, 0.013, 1.064, -0.366, 20.386, 0, 0.472, 4.543, 35.145, 0.000, 0.000, -3211.264, 25.1, 0.95297, -0.00452, 0.02863, 0.30148,
 12:21:18.003,ef:e4:2c:bf:73:a9, 2015-01-01 00:28:32.880, 0.021, 0.014, 1.051, -0.305, 21.057, 0, 0.467, 5.306, 35.156, 0.000, 0.000, -3211.264, 25.1, 0.95297, -0.00452, 0.02863, 0.30148,
 12:21:18.016,c3:a3:c5:ed:f8:8e, 2015-01-01 00:31:13.250, -0.2, -0.015, 1.018, 0.549, -64.026, -0.305, -1.478, 15.958, 131.193, 0.000, 0.000, -3211.264, 24.95, 0.40469, -0.1745, 0.06415, 0.89529,
 12:21:18.063,ef:e4:2c:bf:73:a9, 2015-01-01 00:28:32.880, 0.022, 0.012, 1.039, -0.244, 19.226, 0, 0.461, 6.037, 35.167, 0.000, 0.000, -3211.264, 25.1, 0.95297, -0.00452, 0.02863, 0.30148,
 12:21:18.077,c3:a3:c5:ed:f8:8e, 2015-01-01 00:31:13.250, -0.138, -0.015, 1.017, 0.427, -57.861, -0.183, -1.423, 13.057, 131.265, 0.000, 0.000, -3211.264, 24.95, 0.40469, -0.1745, 0.06415, 0.89529,
 12:21:18.093,ef:e4:2c:bf:73:a9, 2015-01-01 00:28:32.880, 0.02, 0.011, 1.027, -0.305, 16.541, 0, 0.456, 6.647, 35.178, 0.000, 0.000, -3211.264, 25.1, 0.95297, -0.00452, 0.02863, 0.30148,
 12:21:18.106,c3:a3:c5:ed:f8:8e, 2015-01-01 00:31:13.250, -0.082, -0.013, 1.003, 0.427, -58.899, -0.122, -1.373, 10.272, 131.336, 0.000, 0.000, -3211.264, 24.95, 0.40469, -0.1745, 0.06415, 0.89529,
 12:21:18.122,ef:e4:2c:bf:73:a9, 2015-01-01 00:28:32.880, -0.004, 0.01, 1.019, -0.305, 16.418, 0, 0.45, 7.196, 35.189, 0.000, 0.000, -3211.264, 25.1, 0.95297, -0.00452, 0.02863, 0.30148,
 12:21:18.198,c3:a3:c5:ed:f8:8e, 2015-01-01 00:31:13.250, -0.064, -0.013, 1.015, 0.488, -63.843, -0.183, -1.324, 7.3, 131.402, 0.000, 0.000, -3211.264, 24.95, 0.40469, -0.1745, 0.06415, 0.89529,
 12:21:18.212,ef:e4:2c:bf:73:a9, 2015-01-01 00:28:32.880, -0.012, 0.012, 1.005, -0.244, 15.747, 0, 0.439, 7.734, 35.2, 0.000, 0.000, -3211.264, 25.1, 0.95108, -0.01657, 0.06503, 0.30142,
 12:21:18.228,c3:a3:c5:ed:f8:8e, 2015-01-01 00:31:13.250, 0.023, -0.013, 1.031, 0.488, -61.401, -0.244, -1.28, 4.263, 131.468, 0.000, 0.000, -3211.264, 24.95, 0.40469, -0.1745, 0.06415, 0.89529,
 12:21:18.242,ef:e4:2c:bf:73:a9, 2015-01-01 00:28:33.205, -0.01, 0.013, 0.999, -0.183, 13.733, 0, 0.439, 8.207, 35.206, 0.000, 0.000, -3211.264, 25.1, 0.95108, -0.01657, 0.06503, 0.30142,
 12:21:18.258,c3:a3:c5:ed:f8:8e, 2015-01-01 00:31:13.250, 0.078, -0.013, 1.004, 0.427, -58.777, -0.244, -1.241, 1.423, 131.523, 0.000, 0.000, -3211.264, 24.95, 0.40469, -0.1745, 0.06415, 0.89529,
 12:21:18.302,ef:e4:2c:bf:73:a9, 2015-01-01 00:28:33.205, -0.018, 0.01, 0.991, -0.183, 12.268, 0, 0.434, 8.58, 35.217, 0.000, 0.000, -3211.264, 25.1, 0.95108, -0.01657, 0.06503, 0.30142,
 12:21:18.317,c3:a3:c5:ed:f8:8e, 2015-01-01 00:31:13.250, 0.116, -0.013, 0.992, 0.488, -61.523, -0.244, -1.203, -1.461, 131.578, 0.000, 0.000, -3211.264, 24.95, 0.40469, -0.1745, 0.06415, 0.89529,
 12:21:18.333,ef:e4:2c:bf:73:a9, 2015-01-01 00:28:33.205, -0.036, 0.01, 0.983, -0.183, 12.024, 0, 0.434, 8.932, 35.222, 0.000, 0.000, -3211.264, 25.1, 0.95108, -0.01657, 0.06503, 0.30142,
 12:21:18.362,ef:e4:2c:bf:73:a9, 2015-01-01 00:28:33.205, -0.034, 0.009, 0.973, -0.244, 10.254, 0, 0.428, 9.234, 35.233, 0.000, 0.000, -3211.264, 25.1, 0.95108, -0.01657, 0.06503, 0.30142,
 12:21:18.378,c3:a3:c5:ed:f8:8e, 2015-01-01 00:31:13.250, 0.156, -0.012, 1.002, 0.488, -63.721, -0.183, -1.17, -4.537, 131.633, 0.000, 0.000, -3211.264, 24.95, 0.40991, 0.01974, -0.02045, 0.91162,
 12:21:18.437,c3:a3:c5:ed:f8:8e, 2015-01-01 00:31:13.665, 0.242, -0.012, 0.991, 0.488, -59.753, -0.122, -1.137, -7.498, 131.688, 0.000, 0.000, -3211.264, 24.95, 0.40991, 0.01974, -0.02045, 0.91162,
 12:21:18.453,ef:e4:2c:bf:73:a9, 2015-01-01 00:28:33.205, -0.034, 0.012, 0.969, -0.244, 8.667, 0, 0.423, 9.448, 35.239, 0.000, 0.000, -3211.264, 25.1, 0.95108, -0.01657, 0.06503, 0.30142,
 12:21:18.467,c3:a3:c5:ed:f8:8e, 2015-01-01 00:31:13.665, 0.278, -0.013, 0.951, 0.427, -60.913, -0.244, -1.11, -10.377, 131.737, 0.000, 0.000, -3211.264, 24.95, 0.40991, 0.01974, -0.02045, 0.91162,
 12:21:18.482,ef:e4:2c:bf:73:a9, 2015-01-01 00:28:33.205, -0.042, 0.012, 0.964, -0.061, 7.751, 0, 0.423, 9.613, 35.244, 0.000, 0.000, -3211.264, 25.1, 0.95108, -0.01657, 0.06503, 0.30142,
 12:21:18.498,c3:a3:c5:ed:f8:8e, 2015-01-01 00:31:13.665, 0.312, -0.013, 0.943, 0.488, -64.27, -0.305, -1.082, -13.436, 131.786, 0.000, 0.000, -3211.264, 24.95, 0.40991, 0.01974, -0.02045, 0.91162,
 12:21:18.573,ef:e4:2c:bf:73:a9, 2015-01-01 00:28:33.205, -0.047, 0.01, 0.96, -0.122, 6.958, 0, 0.428, 9.684, 35.25, 0.000, 0.000, -3211.264, 25.1, 0.94968, -0.02197, 0.0816, 0.30142,
 12:21:18.589,c3:a3:c5:ed:f8:8e, 2015-01-01 00:31:13.665, 0.373, -0.011, 0.935, 0.488, -60.852, -0.183, -1.06, -16.507, 131.836, 0.000, 0.000, -3211.264, 24.95, 0.40991, 0.01974, -0.02045, 0.91162,
 12:21:18.603,ef:e4:2c:bf:73:a9, 2015-01-01 00:28:33.565, -0.047, 0.008, 0.953, -0.122, 4.944, 0, 0.428, 9.706, 35.255, 0.000, 0.000, -3211.264, 25.1, 0.94968, -0.02197, 0.0816, 0.30142,
 12:21:18.619,c3:a3:c5:ed:f8:8e, 2015-01-01 00:31:13.665, 0.435, -0.011, 0.898, 0.427, -59.265, -0.122, -1.044, -19.396, 131.885, 0.000, 0.000, -3211.264, 24.95, 0.40991, 0.01974, -0.02045, 0.91162,
 12:21:18.678,c3:a3:c5:ed:f8:8e, 2015-01-01 00:31:13.665, 0.456, -0.011, 0.862, 0.488, -62.317, -0.183, -1.027, -22.357, 131.935, 0.000, 0.000, -3211.264, 24.95, 0.40991, 0.01974, -0.02045, 0.91162,
 12:21:18.708,c3:a3:c5:ed:f8:8e, 2015-01-01 00:31:13.665, 0.508, -0.012, 0.852, 0.488, -63.232, -0.244, -1.016, -25.444, 131.979, 0.000, 0.000, -3211.264, 24.95, 0.39786, 0.20493, -0.10089, 0.88849,
 12:21:18.722,ef:e4:2c:bf:73:a9, 2015-01-01 00:28:33.565, -0.049, 0.01, 0.951, -0.183, 4.028, 0, 0.428, 9.684, 35.261, 0.000, 0.000, -3211.264, 25.1, 0.94968, -0.02197, 0.0816, 0.30142,
 12:21:18.722,ef:e4:2c:bf:73:a9, 2015-01-01 00:28:33.565, -0.05, 0.012, 0.95, -0.122, 2.808, 0, 0.428, 9.63, 35.266, 0.000, 0.000, -3211.264, 25.1, 0.94968, -0.02197, 0.0816, 0.30142,
 12:21:18.724,ef:e4:2c:bf:73:a9, 2015-01-01 00:28:33.565, -0.049, 0.011, 0.949, 0.061, 1.77, 0, 0.434, 9.525, 35.266, 0.000, 0.000, -3211.264, 25.1, 0.94968, -0.02197, 0.0816, 0.30142,
 12:21:18.782,ef:e4:2c:bf:73:a9, 2015-01-01 00:28:33.565, -0.051, 0.009, 0.947, -0.061, 0.427, 0, 0.439, 9.371, 35.272, 0.000, 0.000, -3211.264, 25.1, 0.94968, -0.02197, 0.0816, 0.30142,
 12:21:18.796,c3:a3:c5:ed:f8:8e, 2015-01-01 00:31:14.025, 0.553, -0.011, 0.811, 0.488, -59.204, -0.244, -1.005, -28.4, 132.028, 0.000, 0.000, -3211.264, 24.95, 0.39786, 0.20493, -0.10089, 0.88849,
 12:21:18.827,c3:a3:c5:ed:f8:8e, 2015-01-01 00:31:14.025, 0.604, -0.01, 0.777, 0.427, -59.509, -0.183, -1, -31.295, 132.072, 0.000, 0.000, -3211.264, 24.95, 0.39786, 0.20493, -0.10089, 0.88849,
 12:21:18.843,ef:e4:2c:bf:73:a9, 2015-01-01 00:28:33.565, -0.051, 0.007, 0.947, 0, -0.305, 0, 0.445, 9.174, 35.277, 0.000, 0.000, -3211.264, 25.1, 0.94968, -0.02197, 0.0816, 0.30142,
 12:21:18.857,c3:a3:c5:ed:f8:8e, 2015-01-01 00:31:14.025, 0.611, -0.009, 0.733, 0.427, -63.232, -0.183, -1, -34.327, 132.122, 0.000, 0.000, -3211.264, 24.95, 0.39786, 0.20493, -0.10089, 0.88849,
 12:21:18.903,ef:e4:2c:bf:73:a9, 2015-01-01 00:28:33.565, -0.048, 0.013, 0.948, -0.183, -1.526, 0, 0.45, 8.943, 35.277, 0.000, 0.000, -3211.264, 25.1, 0.94968, -0.02197, 0.0816, 0.30142,
 12:21:18.917,c3:a3:c5:ed:f8:8e, 2015-01-01 00:31:14.025, 0.667, -0.012, 0.722, 0.488, -62.134, -0.183, -1.005, -37.419, 132.177, 0.000, 0.000, -3211.264, 24.95, 0.39786, 0.20493, -0.10089, 0.88849,
 12:21:18.977,c3:a3:c5:ed:f8:8e, 2015-01-01 00:31:14.025, 0.708, -0.011, 0.661, 0.427, -58.838, -0.183, -1.011, -40.342, 132.226, 0.000, 0.000, -3211.264, 24.95, 0.39786, 0.20493, -0.10089, 0.88849,
 12:21:18.993,ef:e4:2c:bf:73:a9, 2015-01-01 00:28:33.565, -0.046, 0.011, 0.949, -0.244, -2.441, 0, 0.445, 8.663, 35.277, 0.000, 0.000, -3211.264, 25.1, 0.95026, -0.01932, 0.07364, 0.30185,
 12:21:18.993,ef:e4:2c:bf:73:a9, 2015-01-01 00:28:33.565, -0.047, 0.01, 0.953, 0.061, -3.54, 0, 0.445, 8.339, 35.277, 0.000, 0.000, -3211.264, 25.1, 0.95026, -0.01932, 0.07364, 0.30185,
 12:21:19.038,c3:a3:c5:ed:f8:8e, 2015-01-01 00:31:14.025, 0.726, -0.011, 0.618, 0.427, -60.486, -0.244, -1.027, -43.286, 132.281, 0.000, 0.000, -3211.264, 24.95, 0.39786, 0.20493, -0.10089, 0.88849,
 12:21:19.083,ef:e4:2c:bf:73:a9, 2015-01-01 00:28:34.040, -0.04, 0.008, 0.953, 0.061, -4.578, 0, 0.45, 7.976, 35.277, 0.000, 0.000, -3211.264, 25.1, 0.95026, -0.01932, 0.07364, 0.30185,
 12:21:19.083,ef:e4:2c:bf:73:a9, 2015-01-01 00:28:34.040, -0.037, 0.009, 0.957, 0, -5.859, 0, 0.456, 7.553, 35.277, 0.000, 0.000, -3211.264, 25.1, 0.95026, -0.01932, 0.07364, 0.30185,
 12:21:19.098,c3:a3:c5:ed:f8:8e, 2015-01-01 00:31:14.025, 0.739, -0.011, 0.582, 0.488, -63.599, 0, -1.055, -46.417, 132.358, 0.000, 0.000, -3211.264, 24.95, 0.37543, 0.35263, -0.16513, 0.84103,
 12:21:19.098,c3:a3:c5:ed:f8:8e, 2015-01-01 00:31:14.025, 0.795, -0.011, 0.552, 0.488, -59.692, 0, -1.093, -49.455, 132.44, 0.000, 0.000, -3211.264, 24.95, 0.37543, 0.35263, -0.16513, 0.84103,
 12:21:19.142,ef:e4:2c:bf:73:a9, 2015-01-01 00:28:34.040, -0.035, 0.01, 0.961, 0, -6.226, 0, 0.461, 7.108, 35.277, 0.000, 0.000, -3211.264, 25.1, 0.95026, -0.01932, 0.07364, 0.30185,
 12:21:19.173,ef:e4:2c:bf:73:a9, 2015-01-01 00:28:34.040, -0.032, 0.012, 0.968, 0.122, -7.446, 0, 0.467, 6.636, 35.277, 0.000, 0.000, -3211.264, 25.1, 0.95026, -0.01932, 0.07364, 0.30185,
 12:21:19.217,c3:a3:c5:ed:f8:8e, 2015-01-01 00:31:14.025, 0.819, -0.011, 0.478, 0.366, -58.838, 0, -1.143, -52.344, 132.528, 0.000, 0.000, -3211.264, 24.95, 0.37543, 0.35263, -0.16513, 0.84103,
 12:21:19.219,c3:a3:c5:ed:f8:8e, 2015-01-01 00:31:14.410, 0.812, -0.012, 0.438, 0.366, -62.012, 0, -1.214, -55.377, 132.627, 0.000, 0.000, -3211.264, 24.95, 0.37543, 0.35263, -0.16513, 0.84103,
 12:21:19.262,ef:e4:2c:bf:73:a9, 2015-01-01 00:28:34.040, -0.02, 0.01, 0.973, 0.183, -8.667, 0, 0.478, 6.103, 35.277, 0.000, 0.000, -3211.264, 25.1, 0.95026, -0.01932, 0.07364, 0.30185,
 12:21:19.277,c3:a3:c5:ed:f8:8e, 2015-01-01 00:31:14.410, 0.841, -0.012, 0.401, 0.427, -61.096, 0, -1.302, -58.502, 132.753, 0.000, 0.000, -3211.264, 24.95, 0.37543, 0.35263, -0.16513, 0.84103,
 12:21:19.292,ef:e4:2c:bf:73:a9, 2015-01-01 00:28:34.040, -0.02, 0.009, 0.979, 0.122, -9.277, 0, 0.489, 5.532, 35.272, 0.000, 0.000, -3211.264, 25.1, 0.95026, -0.01932, 0.07364, 0.30185,
 12:21:19.307,c3:a3:c5:ed:f8:8e, 2015-01-01 00:31:14.410, 0.884, -0.012, 0.348, 0.427, -57.8, 0, -1.401, -61.447, 132.891, 0.000, 0.000, -3211.264, 24.95, 0.37543, 0.35263, -0.16513, 0.84103,
 12:21:19.352,ef:e4:2c:bf:73:a9, 2015-01-01 00:28:34.040, -0.017, 0.009, 0.981, 0, -9.705, 0, 0.494, 4.949, 35.272, 0.000, 0.000, -3211.264, 25.1, 0.95026, -0.01932, 0.07364, 0.30185,
 12:21:19.397,c3:a3:c5:ed:f8:8e, 2015-01-01 00:31:14.410, 0.882, -0.012, 0.273, 0.488, -60.303, 0, -1.533, -64.391, 133.055, 0.000, 0.000, -3211.264, 24.95, 0.37543, 0.35263, -0.16513, 0.84103,
 12:21:19.412,ef:e4:2c:bf:73:a9, 2015-01-01 00:28:34.040, -0.003, 0.011, 0.991, 0.122, -11.597, 0, 0.5, 4.323, 35.266, 0.000, 0.000, -3211.264, 25.1, 0.95227, -0.0076, 0.03836, 0.30255,
 12:21:19.427,c3:a3:c5:ed:f8:8e, 2015-01-01 00:31:14.410, 0.869, -0.014, 0.245, 0.488, -63.354, 0, -1.719, -67.538, 133.27, 0.000, 0.000, -3211.264, 24.95, 0.37543, 0.35263, -0.16513, 0.84103,
 12:21:19.457,c3:a3:c5:ed:f8:8e, 2015-01-01 00:31:14.410, 0.9, -0.013, 0.198, 0.427, -58.716, 0, -1.978, -70.637, 133.555, 0.000, 0.000, -3211.264, 24.95, 0.37543, 0.35263, -0.16513, 0.84103,
 12:21:19.472,ef:e4:2c:bf:73:a9, 2015-01-01 00:28:34.425, 0.007, 0.011, 0.999, 0.183, -12.695, 0, 0.511, 3.625, 35.266, 0.000, 0.000, -3211.264, 25.1, 0.95227, -0.0076, 0.03836, 0.30255,
 12:21:19.502,ef:e4:2c:bf:73:a9, 2015-01-01 00:28:34.425, 0.002, 0.01, 1.01, 0.183, -12.573, 0, 0.522, 2.917, 35.261, 0.000, 0.000, -3211.264, 25.1, 0.95227, -0.0076, 0.03836, 0.30255,
 12:21:19.532,ef:e4:2c:bf:73:a9, 2015-01-01 00:28:34.425, 0.014, 0.01, 1.016, 0.122, -14.282, 0, 0.533, 2.192, 35.255, 0.000, 0.000, -3211.264, 25.1, 0.95227, -0.0076, 0.03836, 0.30255,
 12:21:19.576,c3:a3:c5:ed:f8:8e, 2015-01-01 00:31:14.410, 0.922, -0.013, 0.137, 0.427, -57.129, 0, -2.313, -73.542, 133.912, 0.000, 0.000, -3211.264, 24.95, 0.37543, 0.35263, -0.16513, 0.84103,
 12:21:19.608,c3:a3:c5:ed:f8:8e, 2015-01-01 00:31:14.410, 0.891, -0.013, 0.064, 0.549, -62.927, 0, -2.834, -76.602, 134.451, 0.000, 0.000, -3211.264, 24.95, 0.32202, 0.55212, -0.25272, 0.72629,
 12:21:19.622,ef:e4:2c:bf:73:a9, 2015-01-01 00:28:34.425, 0.042, 0.012, 1.023, 0.061, -16.174, 0, 0.538, 1.379, 35.25, 0.000, 0.000, -3211.264, 25.1, 0.95227, -0.0076, 0.03836, 0.30255,
 12:21:19.653,ef:e4:2c:bf:73:a9, 2015-01-01 00:28:34.425, 0.039, 0.013, 1.04, 0.183, -16.052, 0, 0.549, 0.516, 35.244, 0.000, 0.000, -3211.264, 25.1, 0.95227, -0.0076, 0.03836, 0.30255,
 12:21:19.697,c3:a3:c5:ed:f8:8e, 2015-01-01 00:31:14.410, 0.896, -0.015, 0.047, 0.488, -63.599, 0, -3.741, -79.849, 135.374, 0.000, 0.000, -3211.264, 24.95, 0.32202, 0.55212, -0.25272, 0.72629,
 12:21:19.697,c3:a3:c5:ed:f8:8e, 2015-01-01 00:31:14.410, 0.92, -0.015, -0.024, 0.366, -57.068, 0, -5.367, -82.864, 137.01, 0.000, 0.000, -3211.264, 24.95, 0.32202, 0.55212, -0.25272, 0.72629,
 12:21:19.713,ef:e4:2c:bf:73:a9, 2015-01-01 00:28:34.425, 0.042, 0.013, 1.046, 0.183, -16.174, 0, 0.56, -0.313, 35.233, 0.000, 0.000, -3211.264, 25.1, 0.95227, -0.0076, 0.03836, 0.30255,
 12:21:19.727,c3:a3:c5:ed:f8:8e, 2015-01-01 00:31:14.915, 0.897, -0.014, -0.083, 0.366, -58.655, 0, -9.278, -85.798, 140.883, 0.000, 0.000, -3211.264, 24.95, 0.32202, 0.55212, -0.25272, 0.72629,
 12:21:19.743,ef:e4:2c:bf:73:a9, 2015-01-01 00:28:34.425, 0.068, 0.011, 1.056, 0.183, -19.226, 0, 0.571, -1.214, 35.228, 0.000, 0.000, -3211.264, 25.1, 0.95294, 0.00934, -0.01266, 0.30258,
 12:21:19.772,ef:e4:2c:bf:73:a9, 2015-01-01 00:28:34.425, 0.085, 0.01, 1.067, 0.244, -20.569, 0, 0.588, -2.214, 35.217, 0.000, 0.000, -3211.264, 25.1, 0.95294, 0.00934, -0.01266, 0.30258,
 12:21:19.787,c3:a3:c5:ed:f8:8e, 2015-01-01 00:31:14.915, 0.858, -0.015, -0.135, 0.549, -64.575, 0, -38.123, -88.841, 169.305, 0.000, 0.000, -3211.264, 24.95, 0.32202, 0.55212, -0.25272, 0.72629,
 12:21:19.846,c3:a3:c5:ed:f8:8e, 2015-01-01 00:31:14.915, 0.877, -0.016, -0.183, 0.488, -58.228, 0, -162.779, -87.534, -66.731, 0.000, 0.000, -3211.264, 24.95, 0.32202, 0.55212, -0.25272, 0.72629,
 12:21:19.861,ef:e4:2c:bf:73:a9, 2015-01-01 00:28:34.785, 0.081, 0.013, 1.081, 0.183, -19.409, 0, 0.599, -3.208, 35.211, 0.000, 0.000, -3211.264, 25.1, 0.95294, 0.00934, -0.01266, 0.30258,
 12:21:19.891,ef:e4:2c:bf:73:a9, 2015-01-01 00:28:34.785, 0.103, 0.014, 1.088, 0.244, -20.386, 0, 0.61, -4.191, 35.2, 0.000, 0.000, -3211.264, 25.1, 0.95294, 0.00934, -0.01266, 0.30258,
 12:21:19.906,c3:a3:c5:ed:f8:8e, 2015-01-01 00:31:14.915, 0.876, -0.018, -0.243, 0.427, -56.396, 0, -171.887, -84.644, -58.31, 0.000, 0.000, -3211.264, 24.95, 0.32202, 0.55212, -0.25272, 0.72629,
 12:21:19.908,c3:a3:c5:ed:f8:8e, 2015-01-01 00:31:14.915, 0.826, -0.019, -0.31, 0.427, -63.11, 0, -174.6, -81.584, -56.272, 0.000, 0.000, -3211.264, 24.95, 0.32202, 0.55212, -0.25272, 0.72629,
 12:21:19.952,ef:e4:2c:bf:73:a9, 2015-01-01 00:28:34.785, 0.139, 0.014, 1.104, 0.305, -24.414, 0, 0.626, -5.284, 35.189, 0.000, 0.000, -3211.264, 25.1, 0.95294, 0.00934, -0.01266, 0.30258,
 12:21:19.998,c3:a3:c5:ed:f8:8e, 2015-01-01 00:31:14.915, 0.801, -0.019, -0.325, 0.488, -63.965, 0, -175.924, -78.272, -55.596, 0.000, 0.000, -3211.264, 24.95, 0.32202, 0.55212, -0.25272, 0.72629,
 12:21:20.014,ef:e4:2c:bf:73:a9, 2015-01-01 00:28:34.785, 0.141, 0.012, 1.116, 0.366, -24.536, 0, 0.648, -6.471, 35.173, 0.000, 0.000, -3211.264, 25.1, 0.95294, 0.00934, -0.01266, 0.30258,
 12:21:20.028,c3:a3:c5:ed:f8:8e, 2015-01-01 00:31:14.915, 0.816, -0.018, -0.39, 0.488, -56.335, 0, -176.616, -75.157, -55.53, 0.000, 0.000, -3211.264, 24.95, 0.32202, 0.55212, -0.25272, 0.72629,
 12:21:20.074,ef:e4:2c:bf:73:a9, 2015-01-01 00:28:34.785, 0.135, 0.013, 1.129, 0.244, -23.254, 0, 0.665, -7.603, 35.162, 0.000, 0.000, -3211.264, 25.1, 0.95294, 0.00934, -0.01266, 0.30258,
 12:21:20.089,c3:a3:c5:ed:f8:8e, 2015-01-01 00:31:14.915, 0.778, -0.019, -0.451, 0.488, -57.251, 0, -177.034, -72.213, -55.723, 0.000, 0.000, -3211.264, 24.95, 0.25638, 0.72208, -0.36502, 0.52869,
 12:21:20.105,ef:e4:2c:bf:73:a9, 2015-01-01 00:28:34.785, 0.186, 0.015, 1.136, 0.305, -25.574, 0, 0.681, -8.756, 35.145, 0.000, 0.000, -3211.264, 25.1, 0.94983, 0.03079, -0.07733, 0.30127,
 12:21:20.117,c3:a3:c5:ed:f8:8e, 2015-01-01 00:31:15.365, 0.716, -0.02, -0.495, 0.488, -64.941, 0, -177.347, -69, -55.992, 0.000, 0.000, -3211.264, 24.95, 0.25638, 0.72208, -0.36502, 0.52869,
 12:21:20.135,ef:e4:2c:bf:73:a9, 2015-01-01 00:28:34.785, 0.22, 0.016, 1.156, 0.366, -29.785, 0, 0.698, -10.074, 35.129, 0.000, 0.000, -3211.264, 25.1, 0.94983, 0.03079, -0.07733, 0.30127,
 12:21:20.206,c3:a3:c5:ed:f8:8e, 2015-01-01 00:31:15.365, 0.708, -0.021, -0.505, 0.427, -62.439, 0, -177.589, -65.654, -56.31, 0.000, 0.000, -3211.264, 24.95, 0.25638, 0.72208, -0.36502, 0.52869,
 12:21:20.222,ef:e4:2c:bf:73:a9, 2015-01-01 00:28:35.140, 0.207, 0.015, 1.17, 0.305, -28.381, 0, 0.72, -11.437, 35.112, 0.000, 0.000, -3211.264, 25.1, 0.94983, 0.03079, -0.07733, 0.30127,
 12:21:20.236,c3:a3:c5:ed:f8:8e, 2015-01-01 00:31:15.365, 0.714, -0.02, -0.583, 0.427, -56.091, 0, -177.748, -62.595, -56.7, 0.000, 0.000, -3211.264, 24.95, 0.25638, 0.72208, -0.36502, 0.52869,
 12:21:20.252,ef:e4:2c:bf:73:a9, 2015-01-01 00:28:35.140, 0.211, 0.014, 1.18, 0.305, -28.137, 0, 0.736, -12.711, 35.096, 0.000, 0.000, -3211.264, 25.1, 0.94983, 0.03079, -0.07733, 0.30127,
 12:21:20.268,c3:a3:c5:ed:f8:8e, 2015-01-01 00:31:15.365, 0.632, -0.019, -0.636, 0.488, -60.059, 0, -177.863, -59.551, -57.107, 0.000, 0.000, -3211.264, 24.95, 0.25638, 0.72208, -0.36502, 0.52869,
 12:21:20.313,ef:e4:2c:bf:73:a9, 2015-01-01 00:28:35.140, 0.292, 0.014, 1.187, 0.366, -32.043, 0, 0.758, -14.084, 35.074, 0.000, 0.000, -3211.264, 25.1, 0.94983, 0.03079, -0.07733, 0.30127,
 12:21:20.327,c3:a3:c5:ed:f8:8e, 2015-01-01 00:31:15.365, 0.582, -0.021, -0.652, 0.488, -66.04, 0, -177.968, -56.173, -57.497, 0.000, 0.000, -3211.264, 24.95, 0.25638, 0.72208, -0.36502, 0.52869,
 12:21:20.373,ef:e4:2c:bf:73:a9, 2015-01-01 00:28:35.140, 0.315, 0.016, 1.211, 0.427, -34.729, 0, 0.786, -15.65, 35.052, 0.000, 0.000, -3211.264, 25.1, 0.94983, 0.03079, -0.07733, 0.30127,
 12:21:20.373,ef:e4:2c:bf:73:a9, 2015-01-01 00:28:35.140, 0.298, 0.017, 1.224, 0.427, -32.288, 0, 0.807, -17.166, 35.03, 0.000, 0.000, -3211.264, 25.1, 0.94983, 0.03079, -0.07733, 0.30127,
 12:21:20.387,c3:a3:c5:ed:f8:8e, 2015-01-01 00:31:15.365, 0.582, -0.022, -0.67, 0.427, -60.608, 0, -178.055, -52.844, -57.898, 0.000, 0.000, -3211.264, 24.95, 0.25638, 0.72208, -0.36502, 0.52869,
 12:21:20.447,c3:a3:c5:ed:f8:8e, 2015-01-01 00:31:15.365, 0.565, -0.023, -0.749, 0.366, -57.373, 0, -178.11, -49.801, -58.31, 0.000, 0.000, -3211.264, 24.95, 0.19031, 0.79675, -0.4375, 0.37073,
 12:21:20.477,c3:a3:c5:ed:f8:8e, 2015-01-01 00:31:15.720, 0.453, -0.023, -0.787, 0.488, -63.293, 0, -178.16, -46.626, -58.711, 0.000, 0.000, -3211.264, 24.95, 0.19031, 0.79675, -0.4375, 0.37073,
 12:21:20.507,c3:a3:c5:ed:f8:8e, 2015-01-01 00:31:15.720, 0.416, -0.023, -0.785, 0.549, -65.063, -0.305, -178.215, -43.165, -59.073, 0.000, 0.000, -3211.264, 24.95, 0.19031, 0.79675, -0.4375, 0.37073,
 12:21:20.523,ef:e4:2c:bf:73:a9, 2015-01-01 00:28:35.140, 0.323, 0.015, 1.232, 0.427, -33.813, 0, 0.835, -18.611, 35.008, 0.000, 0.000, -3211.264, 25.1, 0.94983, 0.03079, -0.07733, 0.30127,
 12:21:20.525,ef:e4:2c:bf:73:a9, 2015-01-01 00:28:35.140, 0.414, 0.016, 1.24, 0.427, -38.391, 0, 0.862, -20.226, 34.98, 0.000, 0.000, -3211.264, 25.1, 0.93896, 0.05893, -0.16241, 0.29727,
 12:21:20.553,ef:e4:2c:bf:73:a9, 2015-01-01 00:28:35.140, 0.422, 0.018, 1.262, 0, -37.903, 0.366, 0.879, -21.967, 34.953, 0.000, 0.000, -3211.264, 25.1, 0.93896, 0.05893, -0.16241, 0.29727,
 12:21:20.598,c3:a3:c5:ed:f8:8e, 2015-01-01 00:31:15.720, 0.417, -0.024, -0.811, 0.427, -58.777, -0.183, -178.253, -39.902, -59.436, 0.000, 0.000, -3211.264, 24.95, 0.19031, 0.79675, -0.4375, 0.37073,
 12:21:20.613,ef:e4:2c:bf:73:a9, 2015-01-01 00:28:35.140, 0.416, 0.015, 1.271, 0, -35.156, 0.305, 0.879, -23.571, 34.948, 0.000, 0.000, -3211.264, 25.1, 0.93896, 0.05893, -0.16241, 0.29727,
 12:21:20.628,c3:a3:c5:ed:f8:8e, 2015-01-01 00:31:15.720, 0.374, -0.026, -0.882, 0.366, -59.57, -0.122, -178.27, -36.843, -59.81, 0.000, 0.000, -3211.264, 24.95, 0.19031, 0.79675, -0.4375, 0.37073,
 12:21:20.671,ef:e4:2c:bf:73:a9, 2015-01-01 00:28:35.590, 0.473, 0.021, 1.275, 0.61, -38.757, 0, 0.906, -25.142, 34.92, 0.000, 0.000, -3211.264, 25.1, 0.93896, 0.05893, -0.16241, 0.29727,
 12:21:20.718,c3:a3:c5:ed:f8:8e, 2015-01-01 00:31:15.720, 0.259, -0.025, -0.894, 0.488, -65.735, -0.244, -178.292, -33.536, -60.161, 0.000, 0.000, -3211.264, 24.95, 0.19031, 0.79675, -0.4375, 0.37073,
 12:21:20.718,c3:a3:c5:ed:f8:8e, 2015-01-01 00:31:15.720, 0.236, -0.025, -0.887, 0.488, -62.683, -0.244, -178.308, -30.086, -60.491, 0.000, 0.000, -3211.264, 24.95, 0.19031, 0.79675, -0.4375, 0.37073,
 12:21:20.733,ef:e4:2c:bf:73:a9, 2015-01-01 00:28:35.590, 0.548, 0.014, 1.286, 0.671, -42.175, 0, 0.95, -26.917, 34.887, 0.000, 0.000, -3211.264, 25.1, 0.93896, 0.05893, -0.16241, 0.29727,
 12:21:20.763,ef:e4:2c:bf:73:a9, 2015-01-01 00:28:35.590, 0.538, 0.015, 1.302, 0.61, -38.208, 0.122, 0.983, -28.636, 34.854, 0.000, 0.000, -3211.264, 25.1, 0.93896, 0.05893, -0.16241, 0.29727,
 12:21:20.792,ef:e4:2c:bf:73:a9, 2015-01-01 00:28:35.590, 0.566, 0.018, 1.304, 0.61, -36.438, 0.122, 1.016, -30.146, 34.827, 0.000, 0.000, -3211.264, 25.1, 0.93896, 0.05893, -0.16241, 0.29727,
 12:21:20.807,c3:a3:c5:ed:f8:8e, 2015-01-01 00:31:15.720, 0.216, -0.025, -0.92, 0.427, -57.8, -0.244, -178.314, -26.906, -60.82, 0.000, 0.000, -3211.264, 24.95, 0.19031, 0.79675, -0.4375, 0.37073,
 12:21:20.838,c3:a3:c5:ed:f8:8e, 2015-01-01 00:31:15.720, 0.146, -0.027, -0.966, 0.488, -62.988, -0.244, -178.314, -23.763, -61.144, 0.000, 0.000, -3211.264, 24.95, 0.09265, 0.84387, -0.49503, 0.18472,
 12:21:20.869,c3:a3:c5:ed:f8:8e, 2015-01-01 00:31:15.720, 0.057, -0.028, -0.953, 0.549, -66.528, -0.244, -178.314, -20.336, -61.441, 0.000, 0.000, -3211.264, 24.95, 0.09265, 0.84387, -0.49503, 0.18472,
 12:21:20.884,ef:e4:2c:bf:73:a9, 2015-01-01 00:28:35.590, 0.639, 0.021, 1.307, 0.61, -40.649, 0, 1.055, -31.75, 34.794, 0.000, 0.000, -3211.264, 25.1, 0.93896, 0.05893, -0.16241, 0.29727,
 12:21:20.912,ef:e4:2c:bf:73:a9, 2015-01-01 00:28:35.590, 0.672, 0.021, 1.318, 0.61, -40.527, 0, 1.099, -33.459, 34.75, 0.000, 0.000, -3211.264, 25.1, 0.91043, 0.0976, -0.28052, 0.28775,
 12:21:20.927,c3:a3:c5:ed:f8:8e, 2015-01-01 00:31:16.140, 0.05, -0.028, -0.953, 0.427, -59.387, -0.122, -178.303, -16.99, -61.732, 0.000, 0.000, -3211.264, 24.95, 0.09265, 0.84387, -0.49503, 0.18472,
 12:21:20.943,ef:e4:2c:bf:73:a9, 2015-01-01 00:28:35.590, 0.662, 0.019, 1.324, 0.549, -34.241, 0.122, 1.143, -34.964, 34.717, 0.000, 0.000, -3211.264, 25.1, 0.91043, 0.0976, -0.28052, 0.28775,
 12:21:21.003,ef:e4:2c:bf:73:a9, 2015-01-01 00:28:35.945, 0.728, 0.018, 1.322, 0.549, -34.241, 0.061, 1.181, -36.337, 34.684, 0.000, 0.000, -3211.264, 25.1, 0.91043, 0.0976, -0.28052, 0.28775,
 12:21:21.017,c3:a3:c5:ed:f8:8e, 2015-01-01 00:31:16.140, -0.01, -0.028, -0.988, 0.427, -58.044, -0.244, -178.286, -13.892, -62.023, 0.000, 0.000, -3211.264, 24.95, 0.09265, 0.84387, -0.49503, 0.18472,
 12:21:21.049,c3:a3:c5:ed:f8:8e, 2015-01-01 00:31:16.140, -0.096, -0.027, -0.994, 0.488, -65.674, -0.305, -178.264, -10.635, -62.292, 0.000, 0.000, -3211.264, 24.95, 0.09265, 0.84387, -0.49503, 0.18472,
 12:21:21.079,c3:a3:c5:ed:f8:8e, 2015-01-01 00:31:16.140, -0.137, -0.028, -0.965, 0.488, -64.453, -0.244, -178.248, -7.202, -62.54, 0.000, 0.000, -3211.264, 24.95, 0.09265, 0.84387, -0.49503, 0.18472,
 12:21:21.093,ef:e4:2c:bf:73:a9, 2015-01-01 00:28:35.945, 0.777, 0.02, 1.327, 0.549, -36.133, 0.061, 1.219, -37.793, 34.645, 0.000, 0.000, -3211.264, 25.1, 0.91043, 0.0976, -0.28052, 0.28775,
 12:21:21.138,c3:a3:c5:ed:f8:8e, 2015-01-01 00:31:16.140, -0.146, -0.031, -0.985, 0.488, -56.946, -0.122, -178.215, -4.032, -62.792, 0.000, 0.000, -3211.264, 24.95, 0.09265, 0.84387, -0.49503, 0.18472,
 12:21:21.198,c3:a3:c5:ed:f8:8e, 2015-01-01 00:31:16.140, -0.263, -0.03, -1.007, 0.427, -60.913, -0.244, -178.182, -0.917, -63.034, 0.000, 0.000, -3211.264, 24.95, -0.0105, 0.85226, -0.52274, 0.01282,
 12:21:21.242,ef:e4:2c:bf:73:a9, 2015-01-01 00:28:35.945, 0.771, 0.022, 1.331, 0.549, -32.166, 0, 1.263, -39.139, 34.601, 0.000, 0.000, -3211.264, 25.1, 0.91043, 0.0976, -0.28052, 0.28775,
 12:21:21.244,ef:e4:2c:bf:73:a9, 2015-01-01 00:28:35.945, 0.782, 0.021, 1.329, 0.427, -27.161, 0, 1.296, -40.221, 34.568, 0.000, 0.000, -3211.264, 25.1, 0.91043, 0.0976, -0.28052, 0.28775,
 12:21:21.244,ef:e4:2c:bf:73:a9, 2015-01-01 00:28:35.945, 0.851, 0.021, 1.326, 0.427, -28.015, 0, 1.329, -41.248, 34.536, 0.000, 0.000, -3211.264, 25.1, 0.91043, 0.0976, -0.28052, 0.28775,
 12:21:21.257,c3:a3:c5:ed:f8:8e, 2015-01-01 00:31:16.465, -0.312, -0.029, -0.959, 0.488, -65.002, -0.305, -178.149, 2.477, -63.243, 0.000, 0.000, -3211.264, 24.95, -0.0105, 0.85226, -0.52274, 0.01282,
 12:21:21.287,c3:a3:c5:ed:f8:8e, 2015-01-01 00:31:16.465, -0.316, -0.029, -0.951, 0.427, -58.899, -0.183, -178.105, 5.713, -63.452, 0.000, 0.000, -3211.264, 24.95, -0.0105, 0.85226, -0.52274, 0.01282,
 12:21:21.303,ef:e4:2c:bf:73:a9, 2015-01-01 00:28:35.945, 0.854, 0.021, 1.331, 0.488, -24.353, 0, 1.368, -42.226, 34.497, 0.000, 0.000, -3211.264, 25.1, 0.91043, 0.0976, -0.28052, 0.28775,
 12:21:21.303,ef:e4:2c:bf:73:a9, 2015-01-01 00:28:35.945, 0.855, 0.022, 1.33, 0.366, -19.836, 0, 1.395, -42.951, 34.47, 0.000, 0.000, -3211.264, 25.1, 0.91043, 0.0976, -0.28052, 0.28775,
 12:21:21.317,c3:a3:c5:ed:f8:8e, 2015-01-01 00:31:16.465, -0.374, -0.032, -0.978, 0.488, -59.753, -0.183, -178.055, 8.767, -63.655, 0.000, 0.000, -3211.264, 24.95, -0.0105, 0.85226, -0.52274, 0.01282,
 12:21:21.363,ef:e4:2c:bf:73:a9, 2015-01-01 00:28:35.945, 0.889, 0.023, 1.324, 0.366, -18.188, 0, 1.417, -43.528, 34.448, 0.000, 0.000, -3211.264, 25.1, 0.88541, 0.12091, -0.35114, 0.2793,
 12:21:21.393,ef:e4:2c:bf:73:a9, 2015-01-01 00:28:36.365, 0.896, 0.021, 1.327, 0.305, -16.479, 0, 1.439, -44.044, 34.426, 0.000, 0.000, -3211.264, 25.1, 0.88541, 0.12091, -0.35114, 0.2793,
 12:21:21.408,c3:a3:c5:ed:f8:8e, 2015-01-01 00:31:16.465, -0.473, -0.031, -0.951, 0.488, -65.186, -0.244, -178, 12.074, -63.836, 0.000, 0.000, -3211.264, 24.95, -0.0105, 0.85226, -0.52274, 0.01282,
 12:21:21.439,c3:a3:c5:ed:f8:8e, 2015-01-01 00:31:16.465, -0.484, -0.03, -0.906, 0.488, -60.181, -0.183, -177.94, 15.37, -64.001, 0.000, 0.000, -3211.264, 24.95, -0.0105, 0.85226, -0.52274, 0.01282,
 12:21:21.497,c3:a3:c5:ed:f8:8e, 2015-01-01 00:31:16.465, -0.543, -0.03, -0.914, 0.488, -59.143, -0.244, -177.874, 18.484, -64.16, 0.000, 0.000, -3211.264, 24.95, -0.0105, 0.85226, -0.52274, 0.01282,
 12:21:21.543,ef:e4:2c:bf:73:a9, 2015-01-01 00:28:36.365, 0.895, 0.02, 1.326, 0.244, -11.23, 0, 1.45, -44.363, 34.409, 0.000, 0.000, -3211.264, 25.1, 0.88541, 0.12091, -0.35114, 0.2793,
 12:21:21.543,ef:e4:2c:bf:73:a9, 2015-01-01 00:28:36.365, 0.912, 0.022, 1.324, 0.183, -9.094, 0, 1.456, -44.522, 34.404, 0.000, 0.000, -3211.264, 25.1, 0.88541, 0.12091, -0.35114, 0.2793,
 12:21:21.543,ef:e4:2c:bf:73:a9, 2015-01-01 00:28:36.365, 0.916, 0.024, 1.324, 0.122, -5.859, 0, 1.456, -44.561, 34.398, 0.000, 0.000, -3211.264, 25.1, 0.88541, 0.12091, -0.35114, 0.2793,
 12:21:21.557,c3:a3:c5:ed:f8:8e, 2015-01-01 00:31:16.465, -0.607, -0.031, -0.883, 0.488, -64.575, -0.305, -177.797, 21.742, -64.292, 0.000, 0.000, -3211.264, 24.95, -0.12073, 0.82773, -0.52502, -0.15659,
 12:21:21.603,ef:e4:2c:bf:73:a9, 2015-01-01 00:28:36.365, 0.913, 0.024, 1.323, 0.122, -3.113, 0, 1.45, -44.456, 34.398, 0.000, 0.000, -3211.264, 25.1, 0.88541, 0.12091, -0.35114, 0.2793,
 12:21:21.618,c3:a3:c5:ed:f8:8e, 2015-01-01 00:31:16.465, -0.638, -0.031, -0.843, 0.549, -62.805, -0.183, -177.709, 25.054, -64.413, 0.000, 0.000, -3211.264, 24.95, -0.12073, 0.82773, -0.52502, -0.15659,
 12:21:21.648,c3:a3:c5:ed:f8:8e, 2015-01-01 00:31:16.855, -0.674, -0.032, -0.828, 0.488, -60.486, -0.122, -177.616, 28.213, -64.523, 0.000, 0.000, -3211.264, 24.95, -0.12073, 0.82773, -0.52502, -0.15659,
 12:21:21.663,ef:e4:2c:bf:73:a9, 2015-01-01 00:28:36.365, 0.913, 0.022, 1.322, 0, 0.122, 0, 1.439, -44.209, 34.404, 0.000, 0.000, -3211.264, 25.1, 0.88541, 0.12091, -0.35114, 0.2793,
 12:21:21.678,c3:a3:c5:ed:f8:8e, 2015-01-01 00:31:16.855, -0.73, -0.031, -0.803, 0.366, -61.401, -0.366, -177.517, 31.382, -64.611, 0.000, 0.000, -3211.264, 24.95, -0.12073, 0.82773, -0.52502, -0.15659,
 12:21:21.724,ef:e4:2c:bf:73:a9, 2015-01-01 00:28:36.365, 0.905, 0.021, 1.324, 0, 2.197, 0, 1.423, -43.857, 34.415, 0.000, 0.000, -3211.264, 25.1, 0.88492, 0.12125, -0.3526, 0.27893,
 12:21:21.738,c3:a3:c5:ed:f8:8e, 2015-01-01 00:31:16.855, -0.771, -0.031, -0.759, 0.427, -62.134, -0.305, -177.396, 34.585, -64.671, 0.000, 0.000, -3211.264, 24.95, -0.12073, 0.82773, -0.52502, -0.15659,
 12:21:21.752,ef:e4:2c:bf:73:a9, 2015-01-01 00:28:36.720, 0.898, 0.023, 1.323, -0.122, 5.615, 0, 1.401, -43.369, 34.426, 0.000, 0.000, -3211.264, 25.1, 0.88492, 0.12125, -0.3526, 0.27893,
 12:21:21.782,ef:e4:2c:bf:73:a9, 2015-01-01 00:28:36.720, 0.896, 0.026, 1.323, -0.061, 7.324, 0, 1.379, -42.775, 34.448, 0.000, 0.000, -3211.264, 25.1, 0.88492, 0.12125, -0.3526, 0.27893,
 12:21:21.828,c3:a3:c5:ed:f8:8e, 2015-01-01 00:31:16.855, -0.808, -0.032, -0.725, 0.427, -61.401, -0.244, -177.264, 37.776, -64.715, 0.000, 0.000, -3211.264, 24.95, -0.12073, 0.82773, -0.52502, -0.15659,
 12:21:21.858,c3:a3:c5:ed:f8:8e, 2015-01-01 00:31:16.855, -0.821, -0.033, -0.69, 0.488, -59.204, -0.122, -177.122, 40.875, -64.748, 0.000, 0.000, -3211.264, 24.95, -0.12073, 0.82773, -0.52502, -0.15659,
 12:21:21.872,ef:e4:2c:bf:73:a9, 2015-01-01 00:28:36.720, 0.88, 0.024, 1.324, -0.122, 9.827, 0, 1.346, -42.094, 34.464, 0.000, 0.000, -3211.264, 25.1, 0.88492, 0.12125, -0.3526, 0.27893,
 12:21:21.904,ef:e4:2c:bf:73:a9, 2015-01-01 00:28:36.720, 0.86, 0.021, 1.325, -0.183, 13.306, 0, 1.313, -41.287, 34.486, 0.000, 0.000, -3211.264, 25.1, 0.88492, 0.12125, -0.3526, 0.27893,
 12:21:21.947,c3:a3:c5:ed:f8:8e, 2015-01-01 00:31:16.855, -0.899, -0.032, -0.671, 0.549, -61.768, -0.183, -176.946, 43.995, -64.748, 0.000, 0.000, -3211.264, 24.95, -0.12073, 0.82773, -0.52502, -0.15659,
 12:21:21.962,ef:e4:2c:bf:73:a9, 2015-01-01 00:28:36.720, 0.853, 0.021, 1.325, -0.122, 14.282, 0, 1.285, -40.391, 34.514, 0.000, 0.000, -3211.264, 25.1, 0.88492, 0.12125, -0.3526, 0.27893,
 12:21:21.979,c3:a3:c5:ed:f8:8e, 2015-01-01 00:31:16.855, -0.914, -0.031, -0.592, 0.427, -62.073, -0.183, -176.748, 47.219, -64.704, 0.000, 0.000, -3211.264, 24.95, -0.12073, 0.82773, -0.52502, -0.15659,
 12:21:21.992,ef:e4:2c:bf:73:a9, 2015-01-01 00:28:36.720, 0.847, 0.023, 1.329, -0.183, 16.113, 0, 1.247, -39.446, 34.541, 0.000, 0.000, -3211.264, 25.1, 0.88492, 0.12125, -0.3526, 0.27893,
 12:21:22.008,c3:a3:c5:ed:f8:8e, 2015-01-01 00:31:16.855, -0.931, -0.031, -0.568, 0.427, -59.387, -0.244, -176.523, 50.312, -64.633, 0.000, 0.000, -3211.264, 24.95, -0.24445, 0.76181, -0.49661, -0.33636,
 12:21:22.038,c3:a3:c5:ed:f8:8e, 2015-01-01 00:31:16.855, -0.962, -0.031, -0.531, 0.427, -61.279, -0.244, -176.259, 53.383, -64.512, 0.000, 0.000, -3211.264, 24.95, -0.24445, 0.76181, -0.49661, -0.33636,
 12:21:22.084,ef:e4:2c:bf:73:a9, 2015-01-01 00:28:36.720, 0.811, 0.024, 1.328, -0.244, 18.188, 0, 1.214, -38.419, 34.568, 0.000, 0.000, -3211.264, 25.1, 0.90173, 0.1062, -0.30771, 0.28427,
 12:21:22.112,ef:e4:2c:bf:73:a9, 2015-01-01 00:28:37.080, 0.799, 0.021, 1.328, -0.305, 20.02, 0, 1.181, -37.299, 34.596, 0.000, 0.000, -3211.264, 25.1, 0.90173, 0.1062, -0.30771, 0.28427,
 12:21:22.128,c3:a3:c5:ed:f8:8e, 2015-01-01 00:31:17.300, -1.009, -0.033, -0.484, 0.549, -63.538, -0.183, -175.935, 56.569, -64.325, 0.000, 0.000, -3211.264, 24.95, -0.24445, 0.76181, -0.49661, -0.33636,
 12:21:22.128,c3:a3:c5:ed:f8:8e, 2015-01-01 00:31:17.300, -1.012, -0.031, -0.416, 0.427, -59.692, -0.183, -175.551, 59.7, -64.078, 0.000, 0.000, -3211.264, 24.95, -0.24445, 0.76181, -0.49661, -0.33636,
 12:21:22.142,ef:e4:2c:bf:73:a9, 2015-01-01 00:28:37.080, 0.787, 0.02, 1.329, -0.305, 20.203, 0, 1.143, -36.161, 34.623, 0.000, 0.000, -3211.264, 25.1, 0.90173, 0.1062, -0.30771, 0.28427,
 12:21:22.218,c3:a3:c5:ed:f8:8e, 2015-01-01 00:31:17.300, -1.026, -0.03, -0.389, 0.366, -58.716, -0.183, -175.1, 62.693, -63.759, 0.000, 0.000, -3211.264, 24.95, -0.24445, 0.76181, -0.49661, -0.33636,
 12:21:22.247,c3:a3:c5:ed:f8:8e, 2015-01-01 00:31:17.300, -1.061, -0.03, -0.336, 0.427, -62.134, -0.244, -174.518, 65.748, -63.292, 0.000, 0.000, -3211.264, 24.95, -0.24445, 0.76181, -0.49661, -0.33636,
 12:21:22.261,ef:e4:2c:bf:73:a9, 2015-01-01 00:28:37.080, 0.768, 0.021, 1.331, -0.244, 22.095, 0, 1.11, -35.002, 34.651, 0.000, 0.000, -3211.264, 25.1, 0.90173, 0.1062, -0.30771, 0.28427,
 12:21:22.277,c3:a3:c5:ed:f8:8e, 2015-01-01 00:31:17.300, -1.076, -0.031, -0.278, 0.488, -62.439, 0, -173.765, 68.89, -62.655, 0.000, 0.000, -3211.264, 24.95, -0.24445, 0.76181, -0.49661, -0.33636,
 12:21:22.293,ef:e4:2c:bf:73:a9, 2015-01-01 00:28:37.080, 0.729, 0.022, 1.33, -0.305, 24.109, 0, 1.077, -33.755, 34.684, 0.000, 0.000, -3211.264, 25.1, 0.90173, 0.1062, -0.30771, 0.28427,
 12:21:22.323,ef:e4:2c:bf:73:a9, 2015-01-01 00:28:37.080, 0.721, 0.023, 1.329, -0.305, 24.109, 0, 1.044, -32.465, 34.711, 0.000, 0.000, -3211.264, 25.1, 0.90173, 0.1062, -0.30771, 0.28427,
 12:21:22.339,c3:a3:c5:ed:f8:8e, 2015-01-01 00:31:17.300, -1.054, -0.032, -0.224, 0.427, -57.739, 0, -172.815, 71.873, -61.815, 0.000, 0.000, -3211.264, 24.95, -0.24445, 0.76181, -0.49661, -0.33636,
 12:21:22.353,ef:e4:2c:bf:73:a9, 2015-01-01 00:28:37.080, 0.705, 0.022, 1.33, -0.305, 23.926, 0, 1.011, -31.212, 34.739, 0.000, 0.000, -3211.264, 25.1, 0.90173, 0.1062, -0.30771, 0.28427,
 12:21:22.398,c3:a3:c5:ed:f8:8e, 2015-01-01 00:31:17.300, -1.083, -0.033, -0.205, 0.488, -58.533, 0, -171.53, 74.767, -60.634, 0.000, 0.000, -3211.264, 24.95, -0.34888, 0.66949, -0.44348, -0.48297,
 12:21:22.413,ef:e4:2c:bf:73:a9, 2015-01-01 00:28:37.080, 0.668, 0.019, 1.329, -0.305, 26.978, 0, 0.983, -29.916, 34.766, 0.000, 0.000, -3211.264, 25.1, 0.92096, 0.08539, -0.24493, 0.29062,
 12:21:22.456,c3:a3:c5:ed:f8:8e, 2015-01-01 00:31:17.660, -1.112, -0.03, -0.124, 0.488, -63.721, 0, -169.486, 77.838, -58.678, 0.000, 0.000, -3211.264, 24.95, -0.34888, 0.66949, -0.44348, -0.48297,
 12:21:22.486,c3:a3:c5:ed:f8:8e, 2015-01-01 00:31:17.660, -1.093, -0.028, -0.062, 0.366, -61.707, 0, -166.042, 80.909, -55.305, 0.000, 0.000, -3211.264, 24.95, -0.34888, 0.66949, -0.44348, -0.48297,
 12:21:22.502,ef:e4:2c:bf:73:a9, 2015-01-01 00:28:37.405, 0.634, 0.02, 1.325, -0.427, 28.442, 0, 0.945, -28.515, 34.794, 0.000, 0.000, -3211.264, 25.1, 0.92096, 0.08539, -0.24493, 0.29062,
 12:21:22.548,c3:a3:c5:ed:f8:8e, 2015-01-01 00:31:17.660, -1.079, -0.03, -0.021, 0.427, -58.167, 0, -159.796, 83.727, -49.12, 0.000, 0.000, -3211.264, 24.95, -0.34888, 0.66949, -0.44348, -0.48297,
 12:21:22.561,ef:e4:2c:bf:73:a9, 2015-01-01 00:28:37.405, 0.637, 0.021, 1.322, -0.305, 26.855, 0, 0.917, -27.131, 34.821, 0.000, 0.000, -3211.264, 25.1, 0.92096, 0.08539, -0.24493, 0.29062,
 12:21:22.563,ef:e4:2c:bf:73:a9, 2015-01-01 00:28:37.405, 0.603, 0.022, 1.321, -0.366, 27.466, 0, 0.89, -25.796, 34.849, 0.000, 0.000, -3211.264, 25.1, 0.92096, 0.08539, -0.24493, 0.29062,
 12:21:22.607,c3:a3:c5:ed:f8:8e, 2015-01-01 00:31:17.660, -1.11, -0.028, 0.033, 0.549, -64.27, 0, -143.273, 86.429, -32.618, 0.000, 0.000, -3211.264, 24.95, -0.34888, 0.66949, -0.44348, -0.48297,
 12:21:22.622,ef:e4:2c:bf:73:a9, 2015-01-01 00:28:37.405, 0.555, 0.021, 1.317, -0.305, 31.189, 0, 0.857, -24.368, 34.871, 0.000, 0.000, -3211.264, 25.1, 0.92096, 0.08539, -0.24493, 0.29062,
 12:21:22.667,c3:a3:c5:ed:f8:8e, 2015-01-01 00:31:17.660, -1.092, -0.027, 0.105, 0.549, -64.514, 0, -81.513, 87.874, 29.262, 0.000, 0.000, -3211.264, 24.95, -0.34888, 0.66949, -0.44348, -0.48297,
 12:21:22.683,ef:e4:2c:bf:73:a9, 2015-01-01 00:28:37.405, 0.544, 0.018, 1.309, -0.366, 30.579, 0, 0.835, -22.885, 34.898, 0.000, 0.000, -3211.264, 25.1, 0.92096, 0.08539, -0.24493, 0.29062,
 12:21:22.697,c3:a3:c5:ed:f8:8e, 2015-01-01 00:31:17.660, -1.061, -0.025, 0.161, 0.427, -58.594, 0, -32.305, 86.072, 78.514, 0.000, 0.000, -3211.264, 24.95, -0.34888, 0.66949, -0.44348, -0.48297,
 12:21:22.727,c3:a3:c5:ed:f8:8e, 2015-01-01 00:31:17.660, -1.069, -0.026, 0.185, 0.366, -60.669, 0, -18.435, 83.403, 92.307, 0.000, 0.000, -3211.264, 24.95, -0.43469, 0.55472, -0.36722, -0.60693,
 12:21:22.743,ef:e4:2c:bf:73:a9, 2015-01-01 00:28:37.405, 0.536, 0.019, 1.306, -0.305, 28.809, 0, 0.813, -21.495, 34.92, 0.000, 0.000, -3211.264, 25.1, 0.92096, 0.08539, -0.24493, 0.29062,
 12:21:22.817,c3:a3:c5:ed:f8:8e, 2015-01-01 00:31:18.015, -1.077, -0.026, 0.269, 0.488, -65.308, 0, -12.415, 80.37, 98.278, 0.000, 0.000, -3211.264, 24.95, -0.43469, 0.55472, -0.36722, -0.60693,
 12:21:22.832,ef:e4:2c:bf:73:a9, 2015-01-01 00:28:37.405, 0.472, 0.02, 1.302, -0.305, 30.823, 0, 0.791, -20.099, 34.948, 0.000, 0.000, -3211.264, 25.1, 0.939, 0.0585, -0.16324, 0.29688,
 12:21:22.834,ef:e4:2c:bf:73:a9, 2015-01-01 00:28:37.405, 0.45, 0.021, 1.29, -0.366, 32.349, 0, 0.769, -18.605, 34.969, 0.000, 0.000, -3211.264, 25.1, 0.939, 0.0585, -0.16324, 0.29688,
 12:21:22.846,c3:a3:c5:ed:f8:8e, 2015-01-01 00:31:18.015, -1.027, -0.025, 0.325, 0.488, -61.584, 0, -9.294, 77.289, 101.354, 0.000, 0.000, -3211.264, 24.95, -0.43469, 0.55472, -0.36722, -0.60693,
 12:21:22.892,ef:e4:2c:bf:73:a9, 2015-01-01 00:28:37.795, 0.447, 0.019, 1.286, -0.305, 30.151, 0, 0.747, -17.166, 34.997, 0.000, 0.000, -3211.264, 25.1, 0.939, 0.0585, -0.16324, 0.29688,
 12:21:22.908,c3:a3:c5:ed:f8:8e, 2015-01-01 00:31:18.015, -0.999, -0.025, 0.357, 0.488, -58.533, 0, -7.504, 74.416, 103.096, 0.000, 0.000, -3211.264, 24.95, -0.43469, 0.55472, -0.36722, -0.60693,
 12:21:22.921,ef:e4:2c:bf:73:a9, 2015-01-01 00:28:37.795, 0.428, 0.018, 1.28, -0.366, 29.907, 0, 0.731, -15.831, 35.013, 0.000, 0.000, -3211.264, 25.1, 0.939, 0.0585, -0.16324, 0.29688,
 12:21:22.937,c3:a3:c5:ed:f8:8e, 2015-01-01 00:31:18.015, -1.006, -0.024, 0.39, 0.427, -62.256, 0, -6.257, 71.483, 104.299, 0.000, 0.000, -3211.264, 24.95, -0.43469, 0.55472, -0.36722, -0.60693,
 12:21:22.951,ef:e4:2c:bf:73:a9, 2015-01-01 00:28:37.795, 0.362, 0.017, 1.273, -0.427, 32.104, 0, 0.709, -14.436, 35.041, 0.000, 0.000, -3211.264, 25.1, 0.939, 0.0585, -0.16324, 0.29688,
 12:21:23.013,ef:e4:2c:bf:73:a9, 2015-01-01 00:28:37.795, 0.353, 0.019, 1.256, -0.427, 31.311, 0, 0.687, -12.986, 35.063, 0.000, 0.000, -3211.264, 25.1, 0.939, 0.0585, -0.16324, 0.29688,
 12:21:23.074,ef:e4:2c:bf:73:a9, 2015-01-01 00:28:37.795, 0.353, 0.019, 1.25, -0.305, 29.053, 0, 0.67, -11.673, 35.079, 0.000, 0.000, -3211.264, 25.1, 0.939, 0.0585, -0.16324, 0.29688,
 12:21:23.087,c3:a3:c5:ed:f8:8e, 2015-01-01 00:31:18.015, -0.988, -0.023, 0.483, 0.488, -63.782, 0, -5.301, 68.351, 105.205, 0.000, 0.000, -3211.264, 24.95, -0.43469, 0.55472, -0.36722, -0.60693,
 12:21:23.087,c3:a3:c5:ed:f8:8e, 2015-01-01 00:31:18.015, -0.919, -0.023, 0.519, 0.488, -59.082, 0, -4.614, 65.363, 105.848, 0.000, 0.000, -3211.264, 24.95, -0.43469, 0.55472, -0.36722, -0.60693,
 12:21:23.089,c3:a3:c5:ed:f8:8e, 2015-01-01 00:31:18.015, -0.894, -0.023, 0.542, 0.427, -59.265, 0, -4.103, 62.54, 106.309, 0.000, 0.000, -3211.264, 24.95, -0.43469, 0.55472, -0.36722, -0.60693,
 12:21:23.134,ef:e4:2c:bf:73:a9, 2015-01-01 00:28:37.795, 0.317, 0.018, 1.242, -0.366, 30.212, 0, 0.654, -10.404, 35.101, 0.000, 0.000, -3211.264, 25.1, 0.939, 0.0585, -0.16324, 0.29688,
 12:21:23.147,c3:a3:c5:ed:f8:8e, 2015-01-01 00:31:18.015, -0.901, -0.024, 0.582, 0.488, -64.27, 0, -3.664, 59.535, 106.705, 0.000, 0.000, -3211.264, 24.95, -0.43469, 0.55472, -0.36722, -0.60693,
 12:21:23.193,ef:e4:2c:bf:73:a9, 2015-01-01 00:28:37.795, 0.262, 0.017, 1.229, -0.427, 32.288, 0, 0.637, -9.031, 35.118, 0.000, 0.000, -3211.264, 25.1, 0.95007, 0.02982, -0.07571, 0.30112,
 12:21:23.193,ef:e4:2c:bf:73:a9, 2015-01-01 00:28:37.795, 0.27, 0.016, 1.211, -0.366, 28.931, 0, 0.621, -7.707, 35.14, 0.000, 0.000, -3211.264, 25.1, 0.95007, 0.02982, -0.07571, 0.30112,
 12:21:23.207,c3:a3:c5:ed:f8:8e, 2015-01-01 00:31:18.015, -0.855, -0.021, 0.671, 0.427, -61.462, 0, -3.296, 56.398, 107.034, 0.000, 0.000, -3211.264, 24.95, -0.51355, 0.39285, -0.25882, -0.71753,
 12:21:23.267,c3:a3:c5:ed:f8:8e, 2015-01-01 00:31:18.460, -0.772, -0.021, 0.684, 0.366, -56.946, 0, -3.016, 53.542, 107.276, 0.000, 0.000, -3211.264, 24.95, -0.51355, 0.39285, -0.25882, -0.71753,
 12:21:23.282,ef:e4:2c:bf:73:a9, 2015-01-01 00:28:38.210, 0.261, 0.017, 1.206, -0.305, 27.344, 0, 0.61, -6.531, 35.156, 0.000, 0.000, -3211.264, 25.1, 0.95007, 0.02982, -0.07571, 0.30112,
 12:21:23.297,c3:a3:c5:ed:f8:8e, 2015-01-01 00:31:18.460, -0.775, -0.021, 0.697, 0.427, -62.5, 0, -2.774, 50.713, 107.474, 0.000, 0.000, -3211.264, 24.95, -0.51355, 0.39285, -0.25882, -0.71753,
 12:21:23.327,c3:a3:c5:ed:f8:8e, 2015-01-01 00:31:18.460, -0.742, -0.02, 0.761, 0.549, -66.345, -0.305, -2.56, 47.565, 107.644, 0.000, 0.000, -3211.264, 24.95, -0.51355, 0.39285, -0.25882, -0.71753,
 12:21:23.342,ef:e4:2c:bf:73:a9, 2015-01-01 00:28:38.210, 0.204, 0.018, 1.193, -0.427, 30.64, 0, 0.593, -5.317, 35.178, 0.000, 0.000, -3211.264, 25.1, 0.95007, 0.02982, -0.07571, 0.30112,
 12:21:23.402,ef:e4:2c:bf:73:a9, 2015-01-01 00:28:38.210, 0.185, 0.015, 1.177, -0.427, 30.518, 0, 0.582, -4.021, 35.195, 0.000, 0.000, -3211.264, 25.1, 0.95007, 0.02982, -0.07571, 0.30112,
 12:21:23.402,ef:e4:2c:bf:73:a9, 2015-01-01 00:28:38.210, 0.201, 0.014, 1.162, -0.305, 25.696, 0, 0.566, -2.9, 35.211, 0.000, 0.000, -3211.264, 25.1, 0.95007, 0.02982, -0.07571, 0.30112,
 12:21:23.448,c3:a3:c5:ed:f8:8e, 2015-01-01 00:31:18.460, -0.667, -0.02, 0.816, 0.366, -57.861, -0.183, -2.384, 44.544, 107.776, 0.000, 0.000, -3211.264, 24.95, -0.51355, 0.39285, -0.25882, -0.71753,
 12:21:23.448,c3:a3:c5:ed:f8:8e, 2015-01-01 00:31:18.460, -0.619, -0.02, 0.806, 0.366, -57.312, -0.183, -2.241, 41.792, 107.88, 0.000, 0.000, -3211.264, 24.95, -0.51355, 0.39285, -0.25882, -0.71753,
 12:21:23.493,ef:e4:2c:bf:73:a9, 2015-01-01 00:28:38.210, 0.148, 0.016, 1.155, -0.366, 26.367, 0, 0.555, -1.857, 35.228, 0.000, 0.000, -3211.264, 25.1, 0.95007, 0.02982, -0.07571, 0.30112,
 12:21:23.522,ef:e4:2c:bf:73:a9, 2015-01-01 00:28:38.210, 0.112, 0.016, 1.135, -0.488, 29.358, 0, 0.538, -0.681, 35.244, 0.000, 0.000, -3211.264, 25.1, 0.95007, 0.02982, -0.07571, 0.30112,
 12:21:23.552,ef:e4:2c:bf:73:a9, 2015-01-01 00:28:38.210, 0.137, 0.016, 1.122, -0.427, 25.879, 0, 0.522, 0.412, 35.261, 0.000, 0.000, -3211.264, 25.1, 0.95007, 0.02982, -0.07571, 0.30112,
 12:21:23.567,c3:a3:c5:ed:f8:8e, 2015-01-01 00:31:18.460, -0.629, -0.019, 0.853, 0.549, -67.688, -0.244, -2.104, 38.76, 107.974, 0.000, 0.000, -3211.264, 24.95, -0.51355, 0.39285, -0.25882, -0.71753,
 12:21:23.567,c3:a3:c5:ed:f8:8e, 2015-01-01 00:31:18.460, -0.534, -0.018, 0.915, 0.488, -64.209, -0.244, -1.978, 35.541, 108.067, 0.000, 0.000, -3211.264, 24.95, -0.51355, 0.39285, -0.25882, -0.71753,
 12:21:23.613,ef:e4:2c:bf:73:a9, 2015-01-01 00:28:38.210, 0.125, 0.014, 1.115, -0.244, 23.56, 0, 0.516, 1.329, 35.272, 0.000, 0.000, -3211.264, 25.1, 0.95291, 0.00128, 0.01093, 0.30289,
 12:21:23.627,c3:a3:c5:ed:f8:8e, 2015-01-01 00:31:18.460, -0.462, -0.017, 0.905, 0.427, -57.19, -0.183, -1.868, 32.701, 108.127, 0.000, 0.000, -3211.264, 24.95, -0.51355, 0.39285, -0.25882, -0.71753,
 12:21:23.703,ef:e4:2c:bf:73:a9, 2015-01-01 00:28:38.630, 0.055, 0.013, 1.101, -0.427, 26.062, 0, 0.505, 2.302, 35.288, 0.000, 0.000, -3211.264, 25.1, 0.95291, 0.00128, 0.01093, 0.30289,
 12:21:23.719,c3:a3:c5:ed:f8:8e, 2015-01-01 00:31:18.460, -0.464, -0.018, 0.902, 0.488, -63.599, -0.305, -1.774, 29.817, 108.182, 0.000, 0.000, -3211.264, 24.95, -0.56595, 0.20352, -0.12906, -0.78836,
 12:21:23.732,ef:e4:2c:bf:73:a9, 2015-01-01 00:28:38.630, 0.063, 0.012, 1.077, -0.427, 23.621, 0, 0.494, 3.29, 35.305, 0.000, 0.000, -3211.264, 25.1, 0.95291, 0.00128, 0.01093, 0.30289,
 12:21:23.747,c3:a3:c5:ed:f8:8e, 2015-01-01 00:31:18.460, -0.411, -0.017, 0.988, 0.549, -66.04, -0.183, -1.681, 26.57, 108.237, 0.000, 0.000, -3211.264, 24.95, -0.56595, 0.20352, -0.12906, -0.78836,
 12:21:23.748,c3:a3:c5:ed:f8:8e, 2015-01-01 00:31:18.460, -0.312, -0.017, 0.987, 0.427, -59.021, -0.122, -1.604, 23.582, 108.287, 0.000, 0.000, -3211.264, 24.95, -0.56595, 0.20352, -0.12906, -0.78836,
 12:21:23.763,ef:e4:2c:bf:73:a9, 2015-01-01 00:28:38.630, 0.065, 0.015, 1.072, -0.366, 20.691, 0, 0.483, 4.103, 35.316, 0.000, 0.000, -3211.264, 25.1, 0.95291, 0.00128, 0.01093, 0.30289,
 12:21:23.823,ef:e4:2c:bf:73:a9, 2015-01-01 00:28:38.630, 0.042, 0.015, 1.06, -0.305, 20.874, 0, 0.478, 4.85, 35.327, 0.000, 0.000, -3211.264, 25.1, 0.95291, 0.00128, 0.01093, 0.30289,
 12:21:23.838,c3:a3:c5:ed:f8:8e, 2015-01-01 00:31:18.460, -0.279, -0.016, 0.97, 0.427, -60.303, -0.305, -1.533, 20.786, 108.32, 0.000, 0.000, -3211.264, 24.95, -0.56595, 0.20352, -0.12906, -0.78836,
 12:21:23.868,c3:a3:c5:ed:f8:8e, 2015-01-01 00:31:18.460, -0.249, -0.016, 0.991, 0.549, -64.575, -0.305, -1.472, 17.776, 108.347, 0.000, 0.000, -3211.264, 25, -0.56595, 0.20352, -0.12906, -0.78836,
 12:21:23.883,ef:e4:2c:bf:73:a9, 2015-01-01 00:28:38.630, 0.02, 0.013, 1.048, -0.366, 20.935, 0, 0.472, 5.62, 35.343, 0.000, 0.000, -3211.264, 25.1, 0.95291, 0.00128, 0.01093, 0.30289,
 12:21:23.928,c3:a3:c5:ed:f8:8e, 2015-01-01 00:31:18.460, -0.185, -0.015, 1.026, 0.427, -60.364, -0.244, -1.412, 14.716, 108.375, 0.000, 0.000, -3211.264, 25, -0.56595, 0.20352, -0.12906, -0.78836,
 12:21:23.943,ef:e4:2c:bf:73:a9, 2015-01-01 00:28:38.630, 0.021, 0.01, 1.034, -0.305, 17.639, 0, 0.467, 6.301, 35.354, 0.000, 0.000, -3211.264, 25.1, 0.95291, 0.00128, 0.01093, 0.30289,
 12:21:23.973,ef:e4:2c:bf:73:a9, 2015-01-01 00:28:38.630, 0.012, 0.012, 1.026, -0.305, 16.479, 0, 0.456, 6.872, 35.365, 0.000, 0.000, -3211.264, 25.1, 0.95108, -0.01422, 0.05786, 0.30295,
 12:21:23.988,c3:a3:c5:ed:f8:8e, 2015-01-01 00:31:19.150, -0.102, -0.013, 1.012, 0.366, -57.8, -0.183, -1.357, 11.904, 108.391, 0.000, 0.000, -3211.264, 25, -0.56595, 0.20352, -0.12906, -0.78836,
 12:21:24.003,ef:e4:2c:bf:73:a9, 2015-01-01 00:28:38.630, -0.007, 0.013, 1.013, -0.244, 16.479, 0, 0.456, 7.421, 35.37, 0.000, 0.000, -3211.264, 25.1, 0.95108, -0.01422, 0.05786, 0.30295,
 12:21:24.017,c3:a3:c5:ed:f8:8e, 2015-01-01 00:31:19.150, -0.081, -0.014, 1.003, 0.427, -61.89, -0.244, -1.307, 9.036, 108.413, 0.000, 0.000, -3211.264, 25, -0.56595, 0.20352, -0.12906, -0.78836,
 12:21:24.078,c3:a3:c5:ed:f8:8e, 2015-01-01 00:31:19.150, -0.021, -0.014, 1.022, 0.549, -63.721, -0.244, -1.258, 5.977, 108.43, 0.000, 0.000, -3211.264, 25, -0.56595, 0.20352, -0.12906, -0.78836,
 12:21:24.092,ef:e4:2c:bf:73:a9, 2015-01-01 00:28:38.985, -0.009, 0.013, 1.003, -0.244, 15.442, 0, 0.45, 7.943, 35.381, 0.000, 0.000, -3211.264, 25.1, 0.95108, -0.01422, 0.05786, 0.30295,
 12:21:24.122,ef:e4:2c:bf:73:a9, 2015-01-01 00:28:38.985, -0.012, 0.012, 0.996, -0.244, 12.878, 0, 0.445, 8.366, 35.392, 0.000, 0.000, -3211.264, 25.1, 0.95108, -0.01422, 0.05786, 0.30295,
 12:21:24.138,c3:a3:c5:ed:f8:8e, 2015-01-01 00:31:19.150, 0.038, -0.013, 1.018, 0.427, -58.838, -0.183, -1.214, 3.049, 108.441, 0.000, 0.000, -3211.264, 25, -0.56595, 0.20352, -0.12906, -0.78836,
 12:21:24.138,c3:a3:c5:ed:f8:8e, 2015-01-01 00:31:19.150, 0.104, -0.01, 1, 0.427, -59.509, -0.305, -1.181, 0.209, 108.452, 0.000, 0.000, -3211.264, 25, -0.56595, 0.20352, -0.12906, -0.78836,
 12:21:24.182,ef:e4:2c:bf:73:a9, 2015-01-01 00:28:38.985, -0.027, 0.01, 0.989, -0.122, 12.39, 0, 0.445, 8.734, 35.403, 0.000, 0.000, -3211.264, 25.1, 0.95108, -0.01422, 0.05786, 0.30295,
 12:21:24.228,c3:a3:c5:ed:f8:8e, 2015-01-01 00:31:19.150, 0.123, -0.013, 0.993, 0.427, -64.087, -0.183, -1.143, -2.796, 108.463, 0.000, 0.000, -3211.264, 25, -0.56595, 0.20352, -0.12906, -0.78836,
 12:21:24.242,ef:e4:2c:bf:73:a9, 2015-01-01 00:28:38.985, -0.035, 0.011, 0.978, -0.305, 11.536, 0, 0.439, 9.069, 35.409, 0.000, 0.000, -3211.264, 25.1, 0.95108, -0.01422, 0.05786, 0.30295,
 12:21:24.287,c3:a3:c5:ed:f8:8e, 2015-01-01 00:31:19.150, 0.203, -0.013, 1.004, 0.488, -62.561, -0.122, -1.11, -5.872, 108.479, 0.000, 0.000, -3211.264, 25, -0.56595, 0.20352, -0.12906, -0.78836,
 12:21:24.302,ef:e4:2c:bf:73:a9, 2015-01-01 00:28:38.985, -0.033, 0.013, 0.971, -0.244, 9.155, 0, 0.434, 9.338, 35.414, 0.000, 0.000, -3211.264, 25.1, 0.95108, -0.01422, 0.05786, 0.30295,
 12:21:24.332,ef:e4:2c:bf:73:a9, 2015-01-01 00:28:38.985, -0.039, 0.014, 0.967, -0.122, 8.24, 0, 0.434, 9.525, 35.425, 0.000, 0.000, -3211.264, 25.1, 0.94925, -0.02188, 0.08115, 0.30289,
 12:21:24.348,c3:a3:c5:ed:f8:8e, 2015-01-01 00:31:19.150, 0.253, -0.012, 0.968, 0.427, -59.204, -0.183, -1.082, -8.751, 108.49, 0.000, 0.000, -3211.264, 25, -0.58301, -0.05859, 0.05402, -0.80847,
 12:21:24.348,c3:a3:c5:ed:f8:8e, 2015-01-01 00:31:19.150, 0.288, -0.012, 0.948, 0.427, -61.951, -0.305, -1.055, -11.695, 108.501, 0.000, 0.000, -3211.264, 25, -0.58301, -0.05859, 0.05402, -0.80847,
 12:21:24.422,ef:e4:2c:bf:73:a9, 2015-01-01 00:28:38.985, -0.047, 0.01, 0.961, -0.122, 7.324, 0, 0.439, 9.657, 35.431, 0.000, 0.000, -3211.264, 25.1, 0.94925, -0.02188, 0.08115, 0.30289,
 12:21:24.422,ef:e4:2c:bf:73:a9, 2015-01-01 00:28:38.985, -0.046, 0.008, 0.956, -0.061, 6.042, 0, 0.445, 9.706, 35.436, 0.000, 0.000, -3211.264, 25.1, 0.94925, -0.02188, 0.08115, 0.30289,
 12:21:24.437,c3:a3:c5:ed:f8:8e, 2015-01-01 00:31:19.625, 0.329, -0.011, 0.948, 0.488, -63.782, -0.244, -1.033, -14.81, 108.506, 0.000, 0.000, -3211.264, 25, -0.58301, -0.05859, 0.05402, -0.80847,
 12:21:24.468,c3:a3:c5:ed:f8:8e, 2015-01-01 00:31:19.625, 0.406, -0.01, 0.925, 0.488, -59.753, -0.122, -1.011, -17.781, 108.517, 0.000, 0.000, -3211.264, 25, -0.58301, -0.05859, 0.05402, -0.80847,
 12:21:24.497,c3:a3:c5:ed:f8:8e, 2015-01-01 00:31:19.625, 0.441, -0.01, 0.878, 0.427, -60.608, -0.183, -0.994, -20.671, 108.528, 0.000, 0.000, -3211.264, 25, -0.58301, -0.05859, 0.05402, -0.80847,
 12:21:24.513,ef:e4:2c:bf:73:a9, 2015-01-01 00:28:39.345, -0.048, 0.01, 0.952, -0.122, 4.333, 0, 0.445, 9.706, 35.442, 0.000, 0.000, -3211.264, 25.1, 0.94925, -0.02188, 0.08115, 0.30289,
 12:21:24.543,ef:e4:2c:bf:73:a9, 2015-01-01 00:28:39.345, -0.05, 0.013, 0.95, -0.122, 3.54, 0, 0.445, 9.668, 35.447, 0.000, 0.000, -3211.264, 25.1, 0.94925, -0.02188, 0.08115, 0.30289,
 12:21:24.557,c3:a3:c5:ed:f8:8e, 2015-01-01 00:31:19.625, 0.472, -0.012, 0.858, 0.488, -62.866, -0.244, -0.978, -23.692, 108.545, 0.000, 0.000, -3211.264, 25, -0.58301, -0.05859, 0.05402, -0.80847,
 12:21:24.572,ef:e4:2c:bf:73:a9, 2015-01-01 00:28:39.345, -0.05, 0.012, 0.949, -0.061, 2.197, 0, 0.45, 9.597, 35.447, 0.000, 0.000, -3211.264, 25.1, 0.94925, -0.02188, 0.08115, 0.30289,
 12:21:24.603,ef:e4:2c:bf:73:a9, 2015-01-01 00:28:39.345, -0.05, 0.011, 0.948, 0, 1.16, 0, 0.456, 9.47, 35.453, 0.000, 0.000, -3211.264, 25.1, 0.94925, -0.02188, 0.08115, 0.30289,
 12:21:24.618,c3:a3:c5:ed:f8:8e, 2015-01-01 00:31:19.625, 0.522, -0.01, 0.84, 0.427, -60.913, -0.244, -0.967, -26.746, 108.55, 0.000, 0.000, -3211.264, 25, -0.58301, -0.05859, 0.05402, -0.80847,
 12:21:24.693,ef:e4:2c:bf:73:a9, 2015-01-01 00:28:39.345, -0.05, 0.01, 0.947, 0, 0, 0, 0.461, 9.3, 35.458, 0.000, 0.000, -3211.264, 25.1, 0.94925, -0.02188, 0.08115, 0.30289,
 12:21:24.707,c3:a3:c5:ed:f8:8e, 2015-01-01 00:31:19.625, 0.584, -0.01, 0.801, 0.427, -59.021, -0.244, -0.956, -29.647, 108.561, 0.000, 0.000, -3211.264, 25, -0.58301, -0.05859, 0.05402, -0.80847,
 12:21:24.707,c3:a3:c5:ed:f8:8e, 2015-01-01 00:31:19.625, 0.604, -0.009, 0.751, 0.427, -61.34, -0.244, -0.95, -32.585, 108.578, 0.000, 0.000, -3211.264, 25, -0.58301, -0.05859, 0.05402, -0.80847,
 12:21:24.723,ef:e4:2c:bf:73:a9, 2015-01-01 00:28:39.345, -0.048, 0.009, 0.947, 0.122, -0.793, 0, 0.467, 9.091, 35.458, 0.000, 0.000, -3211.264, 25.1, 0.94925, -0.02188, 0.08115, 0.30289,
 12:21:24.737,c3:a3:c5:ed:f8:8e, 2015-01-01 00:31:19.625, 0.638, -0.011, 0.731, 0.549, -63.416, -0.244, -0.945, -35.673, 108.594, 0.000, 0.000, -3211.264, 25, -0.5629, -0.21915, 0.16763, -0.77902,
 12:21:24.813,ef:e4:2c:bf:73:a9, 2015-01-01 00:28:39.345, -0.046, 0.011, 0.948, -0.183, -2.136, 0, 0.467, 8.839, 35.458, 0.000, 0.000, -3211.264, 25.1, 0.94971, -0.01956, 0.07465, 0.30331,
 12:21:24.813,ef:e4:2c:bf:73:a9, 2015-01-01 00:28:39.345, -0.046, 0.009, 0.951, -0.244, -2.869, 0, 0.461, 8.542, 35.464, 0.000, 0.000, -3211.264, 25.1, 0.94971, -0.01956, 0.07465, 0.30331,
 12:21:24.827,c3:a3:c5:ed:f8:8e, 2015-01-01 00:31:20.010, 0.677, -0.012, 0.691, 0.549, -59.509, -0.183, -0.95, -38.683, 108.616, 0.000, 0.000, -3211.264, 25, -0.5629, -0.21915, 0.16763, -0.77902,
 12:21:24.857,c3:a3:c5:ed:f8:8e, 2015-01-01 00:31:20.010, 0.726, -0.011, 0.65, 0.427, -59.143, -0.183, -0.956, -41.589, 108.638, 0.000, 0.000, -3211.264, 25, -0.5629, -0.21915, 0.16763, -0.77902,
 12:21:24.903,ef:e4:2c:bf:73:a9, 2015-01-01 00:28:39.345, -0.044, 0.01, 0.954, 0.122, -4.211, 0, 0.467, 8.207, 35.464, 0.000, 0.000, -3211.264, 25.1, 0.94971, -0.01956, 0.07465, 0.30331,
 12:21:24.917,c3:a3:c5:ed:f8:8e, 2015-01-01 00:31:20.010, 0.724, -0.012, 0.594, 0.488, -62.866, -0.183, -0.972, -44.604, 108.66, 0.000, 0.000, -3211.264, 25, -0.5629, -0.21915, 0.16763, -0.77902,
 12:21:24.933,ef:e4:2c:bf:73:a9, 2015-01-01 00:28:39.345, -0.037, 0.008, 0.955, 0.061, -5.249, 0, 0.472, 7.817, 35.464, 0.000, 0.000, -3211.264, 25.12, 0.94971, -0.01956, 0.07465, 0.30331,
 12:21:24.947,c3:a3:c5:ed:f8:8e, 2015-01-01 00:31:20.010, 0.771, -0.01, 0.579, 0.549, -62.561, -0.183, -0.989, -47.73, 108.693, 0.000, 0.000, -3211.264, 25, -0.5629, -0.21915, 0.16763, -0.77902,
 12:21:24.965,ef:e4:2c:bf:73:a9, 2015-01-01 00:28:39.345, -0.036, 0.01, 0.96, 0, -6.104, 0, 0.478, 7.377, 35.464, 0.000, 0.000, -3211.264, 25.12, 0.94971, -0.01956, 0.07465, 0.30331,
 12:21:25.023,ef:e4:2c:bf:73:a9, 2015-01-01 00:28:39.940, -0.034, 0.011, 0.964, 0.061, -6.653, 0, 0.478, 6.921, 35.464, 0.000, 0.000, -3211.264, 25.12, 0.94971, -0.01956, 0.07465, 0.30331,
 12:21:25.128,c3:a3:c5:ed:f8:8e, 2015-01-01 00:31:20.010, 0.804, -0.01, 0.513, 0.427, -58.289, -0.122, -1.022, -50.663, 108.737, 0.000, 0.000, -3211.264, 25, -0.5629, -0.21915, 0.16763, -0.77902,
 12:21:25.128,c3:a3:c5:ed:f8:8e, 2015-01-01 00:31:20.010, 0.817, -0.013, 0.465, 0.366, -59.57, -0.244, -1.06, -53.591, 108.781, 0.000, 0.000, -3211.264, 25, -0.5629, -0.21915, 0.16763, -0.77902,
 12:21:25.130,c3:a3:c5:ed:f8:8e, 2015-01-01 00:31:20.010, 0.817, -0.013, 0.42, 0.427, -63.11, -0.183, -1.115, -56.695, 108.842, 0.000, 0.000, -3211.264, 25, -0.5629, -0.21915, 0.16763, -0.77902,
 12:21:25.142,ef:e4:2c:bf:73:a9, 2015-01-01 00:28:39.940, -0.025, 0.012, 0.97, 0.183, -8.24, 0, 0.489, 6.427, 35.458, 0.000, 0.000, -3211.264, 25.12, 0.94971, -0.01956, 0.07465, 0.30331,
 12:21:25.144,ef:e4:2c:bf:73:a9, 2015-01-01 00:28:39.940, -0.021, 0.011, 0.975, 0.122, -9.155, 0, 0.505, 5.872, 35.458, 0.000, 0.000, -3211.264, 25.12, 0.94971, -0.01956, 0.07465, 0.30331,
 12:21:25.157,c3:a3:c5:ed:f8:8e, 2015-01-01 00:31:20.010, 0.864, -0.012, 0.391, 0.488, -59.814, -0.244, -1.187, -59.755, 108.913, 0.000, 0.000, -3211.264, 25, -0.5629, -0.21915, 0.16763, -0.77902,
 12:21:25.173,ef:e4:2c:bf:73:a9, 2015-01-01 00:28:39.940, -0.021, 0.01, 0.98, 0.061, -9.46, 0, 0.511, 5.295, 35.458, 0.000, 0.000, -3211.264, 25.12, 0.94971, -0.01956, 0.07465, 0.30331,
 12:21:25.218,c3:a3:c5:ed:f8:8e, 2015-01-01 00:31:20.010, 0.886, -0.011, 0.31, 0.488, -58.105, -0.183, -1.269, -62.655, 109.001, 0.000, 0.000, -3211.264, 25, -0.5629, -0.21915, 0.16763, -0.77902,
 12:21:25.233,ef:e4:2c:bf:73:a9, 2015-01-01 00:28:39.940, -0.01, 0.01, 0.986, 0.061, -10.315, 0, 0.516, 4.702, 35.453, 0.000, 0.000, -3211.264, 25.12, 0.94971, -0.01956, 0.07465, 0.30331,
 12:21:25.277,c3:a3:c5:ed:f8:8e, 2015-01-01 00:31:20.010, 0.866, -0.013, 0.264, 0.427, -61.218, 0, -1.401, -65.671, 109.133, 0.000, 0.000, -3211.264, 25, -0.49585, -0.42859, 0.31763, -0.68515,
 12:21:25.294,ef:e4:2c:bf:73:a9, 2015-01-01 00:28:39.940, 0.006, 0.011, 0.996, 0.122, -12.39, 0, 0.522, 4.043, 35.447, 0.000, 0.000, -3211.264, 25.12, 0.95193, -0.00616, 0.03439, 0.30411,
 12:21:25.340,c3:a3:c5:ed:f8:8e, 2015-01-01 00:31:20.010, 0.894, -0.013, 0.229, 0.427, -61.951, 0, -1.593, -68.846, 109.33, 0.000, 0.000, -3211.264, 25, -0.49585, -0.42859, 0.31763, -0.68515,
 12:21:25.353,ef:e4:2c:bf:73:a9, 2015-01-01 00:28:40.265, 0.006, 0.011, 1.004, 0.122, -12.695, 0, 0.533, 3.334, 35.447, 0.000, 0.000, -3211.264, 25.12, 0.95193, -0.00616, 0.03439, 0.30411,
 12:21:25.366,c3:a3:c5:ed:f8:8e, 2015-01-01 00:31:20.550, 0.919, -0.014, 0.153, 0.427, -57.19, 0, -1.851, -71.84, 109.583, 0.000, 0.000, -3211.264, 25, -0.49585, -0.42859, 0.31763, -0.68515,
 12:21:25.383,ef:e4:2c:bf:73:a9, 2015-01-01 00:28:40.265, 0.004, 0.01, 1.012, 0.183, -13, 0, 0.544, 2.62, 35.442, 0.000, 0.000, -3211.264, 25.12, 0.95193, -0.00616, 0.03439, 0.30411,
 12:21:25.412,ef:e4:2c:bf:73:a9, 2015-01-01 00:28:40.265, 0.031, 0.01, 1.017, 0.122, -14.526, 0, 0.549, 1.868, 35.436, 0.000, 0.000, -3211.264, 25.12, 0.95193, -0.00616, 0.03439, 0.30411,
 12:21:25.457,c3:a3:c5:ed:f8:8e, 2015-01-01 00:31:20.550, 0.9, -0.014, 0.096, 0.427, -59.448, 0, -2.208, -74.784, 109.935, 0.000, 0.000, -3211.264, 25, -0.49585, -0.42859, 0.31763, -0.68515,
 12:21:25.487,c3:a3:c5:ed:f8:8e, 2015-01-01 00:31:20.550, 0.88, -0.014, 0.052, 0.488, -63.965, 0, -2.807, -77.964, 110.522, 0.000, 0.000, -3211.264, 25, -0.49585, -0.42859, 0.31763, -0.68515,
 12:21:25.503,ef:e4:2c:bf:73:a9, 2015-01-01 00:28:40.265, 0.042, 0.012, 1.03, 0.122, -16.479, 0, 0.56, 1.022, 35.431, 0.000, 0.000, -3211.264, 25.12, 0.95193, -0.00616, 0.03439, 0.30411,
 12:21:25.517,c3:a3:c5:ed:f8:8e, 2015-01-01 00:31:20.550, 0.915, -0.015, 0.021, 0.488, -59.814, 0, -3.84, -81.129, 111.55, 0.000, 0.000, -3211.264, 25, -0.49585, -0.42859, 0.31763, -0.68515,
 12:21:25.533,ef:e4:2c:bf:73:a9, 2015-01-01 00:28:40.265, 0.036, 0.013, 1.039, 0.183, -15.991, 0, 0.571, 0.17, 35.42, 0.000, 0.000, -3211.264, 25.12, 0.95193, -0.00616, 0.03439, 0.30411,
 12:21:25.578,c3:a3:c5:ed:f8:8e, 2015-01-01 00:31:20.550, 0.92, -0.015, -0.069, 0.366, -57.739, 0, -5.839, -84.067, 113.516, 0.000, 0.000, -3211.264, 25, -0.49585, -0.42859, 0.31763, -0.68515,
 12:21:25.593,ef:e4:2c:bf:73:a9, 2015-01-01 00:28:40.265, 0.044, 0.012, 1.05, 0.305, -17.212, 0, 0.588, -0.67, 35.414, 0.000, 0.000, -3211.264, 25.12, 0.95193, -0.00616, 0.03439, 0.30411,
 12:21:25.623,ef:e4:2c:bf:73:a9, 2015-01-01 00:28:40.265, 0.084, 0.011, 1.058, 0.305, -19.531, 0, 0.604, -1.615, 35.403, 0.000, 0.000, -3211.264, 25.12, 0.95242, 0.01016, -0.01437, 0.30408,
 12:21:25.668,c3:a3:c5:ed:f8:8e, 2015-01-01 00:31:20.550, 0.864, -0.015, -0.116, 0.427, -62.134, 0, -12.442, -87.111, 119.954, 0.000, 0.000, -3211.264, 25, -0.49585, -0.42859, 0.31763, -0.68515,
 12:21:25.698,c3:a3:c5:ed:f8:8e, 2015-01-01 00:31:20.550, 0.864, -0.015, -0.147, 0.549, -62.5, 0, -127.886, -89.143, -125.294, 0.000, 0.000, -3211.264, 25, -0.41232, -0.57407, 0.43423, -0.55838,
 12:21:25.713,ef:e4:2c:bf:73:a9, 2015-01-01 00:28:40.625, 0.085, 0.011, 1.074, 0.244, -20.02, 0, 0.615, -2.631, 35.398, 0.000, 0.000, -3211.264, 25.12, 0.95242, 0.01016, -0.01437, 0.30408,
 12:21:25.730,c3:a3:c5:ed:f8:8e, 2015-01-01 00:31:20.550, 0.887, -0.016, -0.196, 0.488, -57.312, 0, -169.288, -86.314, -84.6, 0.000, 0.000, -3211.264, 25, -0.41232, -0.57407, 0.43423, -0.55838,
 12:21:25.743,ef:e4:2c:bf:73:a9, 2015-01-01 00:28:40.625, 0.083, 0.013, 1.082, 0.244, -19.409, 0, 0.626, -3.609, 35.387, 0.000, 0.000, -3211.264, 25.12, 0.95242, 0.01016, -0.01437, 0.30408,
 12:21:25.758,c3:a3:c5:ed:f8:8e, 2015-01-01 00:31:20.965, 0.866, -0.017, -0.283, 0.488, -59.143, 0, -173.765, -83.386, -80.821, 0.000, 0.000, -3211.264, 25, -0.41232, -0.57407, 0.43423, -0.55838,
 12:21:25.771,ef:e4:2c:bf:73:a9, 2015-01-01 00:28:40.625, 0.108, 0.014, 1.093, 0.244, -22.095, 0, 0.643, -4.625, 35.376, 0.000, 0.000, -3211.264, 25.12, 0.95242, 0.01016, -0.01437, 0.30408,
 12:21:25.833,ef:e4:2c:bf:73:a9, 2015-01-01 00:28:40.625, 0.146, 0.013, 1.106, 0.305, -24.414, 0, 0.659, -5.768, 35.365, 0.000, 0.000, -3211.264, 25.12, 0.95242, 0.01016, -0.01437, 0.30408,
 12:21:25.848,c3:a3:c5:ed:f8:8e, 2015-01-01 00:31:20.965, 0.8, -0.018, -0.314, 0.488, -63.782, 0, -175.562, -80.2, -79.706, 0.000, 0.000, -3211.264, 25, -0.41232, -0.57407, 0.43423, -0.55838,
 12:21:25.877,c3:a3:c5:ed:f8:8e, 2015-01-01 00:31:20.965, 0.805, -0.017, -0.347, 0.488, -59.937, 0, -176.484, -76.932, -79.437, 0.000, 0.000, -3211.264, 25, -0.41232, -0.57407, 0.43423, -0.55838,
 12:21:25.893,ef:e4:2c:bf:73:a9, 2015-01-01 00:28:40.625, 0.14, 0.012, 1.124, 0.305, -23.499, 0, 0.676, -6.938, 35.349, 0.000, 0.000, -3211.264, 25.12, 0.95242, 0.01016, -0.01437, 0.30408,
 12:21:25.938,c3:a3:c5:ed:f8:8e, 2015-01-01 00:31:20.965, 0.811, -0.018, -0.405, 0.488, -56.091, 0, -176.984, -73.932, -79.574, 0.000, 0.000, -3211.264, 25, -0.41232, -0.57407, 0.43423, -0.55838,
 12:21:25.952,ef:e4:2c:bf:73:a9, 2015-01-01 00:28:40.625, 0.145, 0.013, 1.129, 0.305, -23.438, 0, 0.692, -8.053, 35.338, 0.000, 0.000, -3211.264, 25.12, 0.95242, 0.01016, -0.01437, 0.30408,
 12:21:25.967,c3:a3:c5:ed:f8:8e, 2015-01-01 00:31:20.965, 0.762, -0.02, -0.484, 0.488, -61.462, 0, -177.319, -70.911, -79.86, 0.000, 0.000, -3211.264, 25, -0.41232, -0.57407, 0.43423, -0.55838,
 12:21:25.983,ef:e4:2c:bf:73:a9, 2015-01-01 00:28:40.625, 0.191, 0.016, 1.142, 0.366, -27.954, 0, 0.709, -9.267, 35.321, 0.000, 0.000, -3211.264, 25.12, 0.94971, 0.02969, -0.07294, 0.30292,
 12:21:26.014,ef:e4:2c:bf:73:a9, 2015-01-01 00:28:40.625, 0.221, 0.016, 1.158, 0.366, -29.724, 0, 0.731, -10.635, 35.305, 0.000, 0.000, -3211.264, 25.12, 0.94971, 0.02969, -0.07294, 0.30292,
 12:21:26.029,c3:a3:c5:ed:f8:8e, 2015-01-01 00:31:20.965, 0.704, -0.021, -0.496, 0.549, -65.063, 0, -177.583, -67.593, -80.184, 0.000, 0.000, -3211.264, 25, -0.41232, -0.57407, 0.43423, -0.55838,
 12:21:26.089,c3:a3:c5:ed:f8:8e, 2015-01-01 00:31:20.965, 0.712, -0.019, -0.537, 0.366, -57.983, 0, -177.764, -64.347, -80.568, 0.000, 0.000, -3211.264, 25, -0.32822, -0.65445, 0.54291, -0.41122,
 12:21:26.117,c3:a3:c5:ed:f8:8e, 2015-01-01 00:31:21.320, 0.687, -0.019, -0.596, 0.366, -56.519, 0, -177.891, -61.359, -81.002, 0.000, 0.000, -3211.264, 25, -0.32822, -0.65445, 0.54291, -0.41122,
 12:21:26.133,ef:e4:2c:bf:73:a9, 2015-01-01 00:28:40.980, 0.208, 0.015, 1.176, 0.366, -27.466, 0, 0.753, -11.953, 35.283, 0.000, 0.000, -3211.264, 25.12, 0.94971, 0.02969, -0.07294, 0.30292,
 12:21:26.133,ef:e4:2c:bf:73:a9, 2015-01-01 00:28:40.980, 0.24, 0.012, 1.181, 0.427, -28.625, 0, 0.775, -13.244, 35.266, 0.000, 0.000, -3211.264, 25.12, 0.94971, 0.02969, -0.07294, 0.30292,
 12:21:26.147,c3:a3:c5:ed:f8:8e, 2015-01-01 00:31:21.320, 0.614, -0.021, -0.652, 0.549, -64.88, 0, -177.995, -58.184, -81.425, 0.000, 0.000, -3211.264, 25, -0.32822, -0.65445, 0.54291, -0.41122,
 12:21:26.223,ef:e4:2c:bf:73:a9, 2015-01-01 00:28:40.980, 0.297, 0.015, 1.196, 0.366, -34.485, 0, 0.797, -14.716, 35.244, 0.000, 0.000, -3211.264, 25.12, 0.94971, 0.02969, -0.07294, 0.30292,
 12:21:26.223,ef:e4:2c:bf:73:a9, 2015-01-01 00:28:40.980, 0.309, 0.016, 1.211, 0.366, -34.424, 0, 0.818, -16.298, 35.222, 0.000, 0.000, -3211.264, 25.12, 0.94971, 0.02969, -0.07294, 0.30292,
 12:21:26.237,c3:a3:c5:ed:f8:8e, 2015-01-01 00:31:21.320, 0.576, -0.022, -0.654, 0.61, -65.247, -0.366, -178.099, -54.756, -81.821, 0.000, 0.000, -3211.264, 25, -0.32822, -0.65445, 0.54291, -0.41122,
 12:21:26.268,c3:a3:c5:ed:f8:8e, 2015-01-01 00:31:21.320, 0.581, -0.023, -0.708, 0.488, -57.129, -0.183, -178.176, -51.559, -82.233, 0.000, 0.000, -3211.264, 25, -0.32822, -0.65445, 0.54291, -0.41122,
 12:21:26.313,ef:e4:2c:bf:73:a9, 2015-01-01 00:28:40.980, 0.3, 0.017, 1.227, 0.366, -31.738, 0, 0.84, -17.754, 35.195, 0.000, 0.000, -3211.264, 25.12, 0.94971, 0.02969, -0.07294, 0.30292,
 12:21:26.328,c3:a3:c5:ed:f8:8e, 2015-01-01 00:31:21.320, 0.517, -0.023, -0.761, 0.366, -58.472, -0.122, -178.226, -48.521, -82.65, 0.000, 0.000, -3211.264, 25, -0.32822, -0.65445, 0.54291, -0.41122,
 12:21:26.358,c3:a3:c5:ed:f8:8e, 2015-01-01 00:31:21.320, 0.441, -0.022, -0.787, 0.549, -66.528, -0.244, -178.27, -45.209, -83.051, 0.000, 0.000, -3211.264, 25, -0.32822, -0.65445, 0.54291, -0.41122,
 12:21:26.373,ef:e4:2c:bf:73:a9, 2015-01-01 00:28:40.980, 0.368, 0.017, 1.232, 0.427, -34.485, 0, 0.868, -19.243, 35.173, 0.000, 0.000, -3211.264, 25.12, 0.93799, 0.0603, -0.16525, 0.29858,
 12:21:26.373,ef:e4:2c:bf:73:a9, 2015-01-01 00:28:40.980, 0.418, 0.017, 1.252, 0.244, -39.612, 0, 0.89, -20.945, 35.14, 0.000, 0.000, -3211.264, 25.12, 0.93799, 0.0603, -0.16525, 0.29858,
 12:21:26.432,ef:e4:2c:bf:73:a9, 2015-01-01 00:28:41.340, 0.413, 0.017, 1.265, 0, -37.415, 0.305, 0.901, -22.654, 35.118, 0.000, 0.000, -3211.264, 25.12, 0.93799, 0.0603, -0.16525, 0.29858,
 12:21:26.477,c3:a3:c5:ed:f8:8e, 2015-01-01 00:31:21.320, 0.416, -0.022, -0.788, 0.549, -63.477, -0.244, -178.314, -41.781, -83.43, 0.000, 0.000, -3211.264, 25, -0.2207, -0.70261, 0.62137, -0.26721,
 12:21:26.477,c3:a3:c5:ed:f8:8e, 2015-01-01 00:31:21.320, 0.409, -0.025, -0.85, 0.488, -57.068, -0.183, -178.33, -38.644, -83.82, 0.000, 0.000, -3211.264, 25, -0.2207, -0.70261, 0.62137, -0.26721,
 12:21:26.507,c3:a3:c5:ed:f8:8e, 2015-01-01 00:31:21.680, 0.31, -0.026, -0.889, 0.488, -61.157, -0.244, -178.347, -35.53, -84.199, 0.000, 0.000, -3211.264, 25, -0.2207, -0.70261, 0.62137, -0.26721,
 12:21:26.522,ef:e4:2c:bf:73:a9, 2015-01-01 00:28:41.340, 0.419, 0.012, 1.273, 0.488, -35.461, 0.122, 0.906, -24.208, 35.107, 0.000, 0.000, -3211.264, 25.12, 0.93799, 0.0603, -0.16525, 0.29858,
 12:21:26.553,ef:e4:2c:bf:73:a9, 2015-01-01 00:28:41.340, 0.518, 0.021, 1.275, 0.549, -39.429, 0.061, 0.945, -25.845, 35.079, 0.000, 0.000, -3211.264, 25.12, 0.93799, 0.0603, -0.16525, 0.29858,
 12:21:26.584,ef:e4:2c:bf:73:a9, 2015-01-01 00:28:41.340, 0.545, 0.02, 1.295, 0.61, -41.382, 0, 0.983, -27.658, 35.041, 0.000, 0.000, -3211.264, 25.12, 0.93799, 0.0603, -0.16525, 0.29858,
 12:21:26.597,c3:a3:c5:ed:f8:8e, 2015-01-01 00:31:21.680, 0.25, -0.025, -0.885, 0.549, -66.162, -0.183, -178.363, -32.113, -84.551, 0.000, 0.000, -3211.264, 25, -0.2207, -0.70261, 0.62137, -0.26721,
 12:21:26.627,c3:a3:c5:ed:f8:8e, 2015-01-01 00:31:21.680, 0.235, -0.026, -0.892, 0.427, -61.035, -0.183, -178.369, -28.757, -84.902, 0.000, 0.000, -3211.264, 25, -0.2207, -0.70261, 0.62137, -0.26721,
 12:21:26.674,ef:e4:2c:bf:73:a9, 2015-01-01 00:28:41.340, 0.536, 0.017, 1.304, 0.549, -36.438, 0.122, 1.016, -29.268, 35.008, 0.000, 0.000, -3211.264, 25.12, 0.93799, 0.0603, -0.16525, 0.29858,
 12:21:26.703,ef:e4:2c:bf:73:a9, 2015-01-01 00:28:41.340, 0.611, 0.017, 1.304, 0.61, -37.659, 0.061, 1.049, -30.778, 34.98, 0.000, 0.000, -3211.264, 25.12, 0.9184, 0.08862, -0.25165, 0.29196,
 12:21:26.750,c3:a3:c5:ed:f8:8e, 2015-01-01 00:31:21.680, 0.202, -0.025, -0.951, 0.427, -58.716, -0.183, -178.363, -25.653, -85.248, 0.000, 0.000, -3211.264, 25, -0.2207, -0.70261, 0.62137, -0.26721,
 12:21:26.750,c3:a3:c5:ed:f8:8e, 2015-01-01 00:31:21.680, 0.089, -0.027, -0.966, 0.549, -64.392, -0.305, -178.363, -22.407, -85.573, 0.000, 0.000, -3211.264, 25, -0.2207, -0.70261, 0.62137, -0.26721,
 12:21:26.750,c3:a3:c5:ed:f8:8e, 2015-01-01 00:31:21.680, 0.056, -0.028, -0.943, 0.488, -63.782, -0.244, -178.352, -18.962, -85.88, 0.000, 0.000, -3211.264, 25, -0.2207, -0.70261, 0.62137, -0.26721,
 12:21:26.793,ef:e4:2c:bf:73:a9, 2015-01-01 00:28:41.340, 0.667, 0.021, 1.313, 0.61, -41.199, 0.061, 1.088, -32.443, 34.942, 0.000, 0.000, -3211.264, 25.12, 0.9184, 0.08862, -0.25165, 0.29196,
 12:21:26.793,ef:e4:2c:bf:73:a9, 2015-01-01 00:28:41.340, 0.665, 0.02, 1.322, 0.61, -37.781, 0, 1.132, -34.091, 34.904, 0.000, 0.000, -3211.264, 25.12, 0.9184, 0.08862, -0.25165, 0.29196,
 12:21:26.823,ef:e4:2c:bf:73:a9, 2015-01-01 00:28:41.695, 0.675, 0.019, 1.322, 0.61, -33.813, 0, 1.17, -35.519, 34.871, 0.000, 0.000, -3211.264, 25.12, 0.9184, 0.08862, -0.25165, 0.29196,
 12:21:26.839,c3:a3:c5:ed:f8:8e, 2015-01-01 00:31:21.680, 0.037, -0.029, -0.959, 0.427, -58.289, -0.122, -178.336, -15.765, -86.182, 0.000, 0.000, -3211.264, 25, -0.2207, -0.70261, 0.62137, -0.26721,
 12:21:26.899,c3:a3:c5:ed:f8:8e, 2015-01-01 00:31:21.680, -0.032, -0.027, -1.003, 0.488, -61.584, -0.244, -178.314, -12.64, -86.479, 0.000, 0.000, -3211.264, 25, -0.07083, -0.72488, 0.67831, -0.09637,
 12:21:26.913,ef:e4:2c:bf:73:a9, 2015-01-01 00:28:41.695, 0.762, 0.016, 1.321, 0.488, -35.706, 0, 1.208, -36.92, 34.832, 0.000, 0.000, -3211.264, 25.12, 0.9184, 0.08862, -0.25165, 0.29196,
 12:21:26.943,ef:e4:2c:bf:73:a9, 2015-01-01 00:28:41.695, 0.781, 0.019, 1.33, 0.61, -33.936, 0.061, 1.252, -38.364, 34.788, 0.000, 0.000, -3211.264, 25.12, 0.9184, 0.08862, -0.25165, 0.29196,
 12:21:26.957,c3:a3:c5:ed:f8:8e, 2015-01-01 00:31:22.125, -0.134, -0.028, -0.986, 0.488, -66.101, -0.244, -178.297, -9.245, -86.748, 0.000, 0.000, -3211.264, 25, -0.07083, -0.72488, 0.67831, -0.09637,
 12:21:26.957,c3:a3:c5:ed:f8:8e, 2015-01-01 00:31:22.125, -0.135, -0.028, -0.965, 0.488, -59.631, -0.244, -178.27, -5.911, -87.006, 0.000, 0.000, -3211.264, 25, -0.07083, -0.72488, 0.67831, -0.09637,
 12:21:27.002,ef:e4:2c:bf:73:a9, 2015-01-01 00:28:41.695, 0.776, 0.021, 1.332, 0.488, -28.931, 0, 1.291, -39.589, 34.755, 0.000, 0.000, -3211.264, 25.12, 0.9184, 0.08862, -0.25165, 0.29196,
 12:21:27.048,c3:a3:c5:ed:f8:8e, 2015-01-01 00:31:22.125, -0.186, -0.03, -0.994, 0.427, -57.251, -0.183, -178.237, -2.834, -87.264, 0.000, 0.000, -3211.264, 25, -0.07083, -0.72488, 0.67831, -0.09637,
 12:21:27.077,c3:a3:c5:ed:f8:8e, 2015-01-01 00:31:22.125, -0.277, -0.031, -0.992, 0.488, -65.125, -0.244, -178.198, 0.412, -87.501, 0.000, 0.000, -3211.264, 25, -0.07083, -0.72488, 0.67831, -0.09637,
 12:21:27.092,ef:e4:2c:bf:73:a9, 2015-01-01 00:28:41.695, 0.817, 0.022, 1.326, 0.488, -27.649, 0, 1.324, -40.622, 34.722, 0.000, 0.000, -3211.264, 25.12, 0.9184, 0.08862, -0.25165, 0.29196,
 12:21:27.122,ef:e4:2c:bf:73:a9, 2015-01-01 00:28:41.695, 0.856, 0.022, 1.329, 0.427, -27.649, 0, 1.362, -41.66, 34.684, 0.000, 0.000, -3211.264, 25.12, 0.9184, 0.08862, -0.25165, 0.29196,
 12:21:27.153,ef:e4:2c:bf:73:a9, 2015-01-01 00:28:41.695, 0.844, 0.018, 1.331, 0.366, -21.301, 0, 1.39, -42.545, 34.651, 0.000, 0.000, -3211.264, 25.12, 0.88794, 0.11905, -0.34348, 0.28165,
 12:21:27.167,c3:a3:c5:ed:f8:8e, 2015-01-01 00:31:22.125, -0.317, -0.029, -0.953, 0.488, -63.721, -0.183, -178.16, 3.801, -87.72, 0.000, 0.000, -3211.264, 25, -0.07083, -0.72488, 0.67831, -0.09637,
 12:21:27.167,c3:a3:c5:ed:f8:8e, 2015-01-01 00:31:22.125, -0.328, -0.029, -0.965, 0.427, -56.885, -0.183, -178.116, 6.905, -87.94, 0.000, 0.000, -3211.264, 25, -0.07083, -0.72488, 0.67831, -0.09637,
 12:21:27.182,ef:e4:2c:bf:73:a9, 2015-01-01 00:28:41.695, 0.872, 0.021, 1.327, 0.366, -18.616, 0, 1.417, -43.182, 34.629, 0.000, 0.000, -3211.264, 25.12, 0.88794, 0.11905, -0.34348, 0.28165,
 12:21:27.242,ef:e4:2c:bf:73:a9, 2015-01-01 00:28:42.145, 0.9, 0.024, 1.326, 0.366, -17.517, 0, 1.439, -43.742, 34.607, 0.000, 0.000, -3211.264, 25.12, 0.88794, 0.11905, -0.34348, 0.28165,
 12:21:27.257,c3:a3:c5:ed:f8:8e, 2015-01-01 00:31:22.125, -0.438, -0.031, -0.975, 0.427, -61.218, -0.305, -178.066, 10.025, -88.143, 0.000, 0.000, -3211.264, 25, -0.07083, -0.72488, 0.67831, -0.09637,
 12:21:27.287,c3:a3:c5:ed:f8:8e, 2015-01-01 00:31:22.125, -0.472, -0.031, -0.916, 0.488, -64.026, -0.305, -178.006, 13.392, -88.314, 0.000, 0.000, -3211.264, 25, 0.10724, -0.70819, 0.6925, 0.08521,
 12:21:27.302,ef:e4:2c:bf:73:a9, 2015-01-01 00:28:42.145, 0.898, 0.025, 1.328, 0.305, -14.16, 0, 1.456, -44.193, 34.585, 0.000, 0.000, -3211.264, 25.12, 0.88794, 0.11905, -0.34348, 0.28165,
 12:21:27.347,c3:a3:c5:ed:f8:8e, 2015-01-01 00:31:22.125, -0.498, -0.031, -0.91, 0.549, -59.204, -0.061, -177.94, 16.589, -88.489, 0.000, 0.000, -3211.264, 25, 0.10724, -0.70819, 0.6925, 0.08521,
 12:21:27.377,c3:a3:c5:ed:f8:8e, 2015-01-01 00:31:22.545, -0.56, -0.032, -0.909, 0.427, -61.829, -0.183, -177.869, 19.72, -88.66, 0.000, 0.000, -3211.264, 25, 0.10724, -0.70819, 0.6925, 0.08521,
 12:21:27.393,ef:e4:2c:bf:73:a9, 2015-01-01 00:28:42.145, 0.902, 0.022, 1.324, 0.122, -9.766, 0, 1.467, -44.434, 34.574, 0.000, 0.000, -3211.264, 25.12, 0.88794, 0.11905, -0.34348, 0.28165,
 12:21:27.395,ef:e4:2c:bf:73:a9, 2015-01-01 00:28:42.145, 0.912, 0.02, 1.324, 0.122, -7.996, 0, 1.467, -44.55, 34.568, 0.000, 0.000, -3211.264, 25.12, 0.88794, 0.11905, -0.34348, 0.28165,
 12:21:27.423,ef:e4:2c:bf:73:a9, 2015-01-01 00:28:42.145, 0.91, 0.021, 1.323, 0.122, -4.15, 0, 1.467, -44.539, 34.563, 0.000, 0.000, -3211.264, 25.12, 0.88794, 0.11905, -0.34348, 0.28165,
 12:21:27.437,c3:a3:c5:ed:f8:8e, 2015-01-01 00:31:22.545, -0.625, -0.031, -0.873, 0.366, -64.575, -0.366, -177.792, 23.033, -88.792, 0.000, 0.000, -3211.264, 25, 0.10724, -0.70819, 0.6925, 0.08521,
 12:21:27.498,c3:a3:c5:ed:f8:8e, 2015-01-01 00:31:22.545, -0.648, -0.03, -0.835, 0.366, -60.364, -0.305, -177.704, 26.268, -88.907, 0.000, 0.000, -3211.264, 25, 0.10724, -0.70819, 0.6925, 0.08521,
 12:21:27.529,c3:a3:c5:ed:f8:8e, 2015-01-01 00:31:22.545, -0.699, -0.032, -0.821, 0.488, -60.73, -0.183, -177.61, 29.421, -89.017, 0.000, 0.000, -3211.264, 25, 0.10724, -0.70819, 0.6925, 0.08521,
 12:21:27.544,ef:e4:2c:bf:73:a9, 2015-01-01 00:28:42.145, 0.911, 0.025, 1.324, 0.122, -1.709, 0, 1.456, -44.374, 34.568, 0.000, 0.000, -3211.264, 25.12, 0.8833, 0.12283, -0.35532, 0.27988,
 12:21:27.544,ef:e4:2c:bf:73:a9, 2015-01-01 00:28:42.145, 0.914, 0.024, 1.321, -0.061, 1.16, 0, 1.445, -44.083, 34.574, 0.000, 0.000, -3211.264, 25.12, 0.8833, 0.12283, -0.35532, 0.27988,
 12:21:27.558,c3:a3:c5:ed:f8:8e, 2015-01-01 00:31:22.545, -0.734, -0.034, -0.784, 0.427, -61.646, -0.183, -177.501, 32.602, -89.099, 0.000, 0.000, -3211.264, 25, 0.10724, -0.70819, 0.6925, 0.08521,
 12:21:27.604,ef:e4:2c:bf:73:a9, 2015-01-01 00:28:42.500, 0.906, 0.024, 1.323, 0.061, 3.601, 0, 1.423, -43.682, 34.59, 0.000, 0.000, -3211.264, 25.12, 0.8833, 0.12283, -0.35532, 0.27988,
 12:21:27.633,ef:e4:2c:bf:73:a9, 2015-01-01 00:28:42.500, 0.896, 0.02, 1.323, -0.061, 6.714, 0, 1.401, -43.149, 34.601, 0.000, 0.000, -3211.264, 25.12, 0.8833, 0.12283, -0.35532, 0.27988,
 12:21:27.647,c3:a3:c5:ed:f8:8e, 2015-01-01 00:31:22.545, -0.793, -0.031, -0.755, 0.488, -62.073, -0.122, -177.38, 35.804, -89.171, 0.000, 0.000, -3211.264, 25, 0.24615, -0.6669, 0.66867, 0.21777,
 12:21:27.678,c3:a3:c5:ed:f8:8e, 2015-01-01 00:31:22.545, -0.812, -0.031, -0.706, 0.488, -60.181, -0.183, -177.242, 38.958, -89.22, 0.000, 0.000, -3211.264, 25, 0.24615, -0.6669, 0.66867, 0.21777,
 12:21:27.723,ef:e4:2c:bf:73:a9, 2015-01-01 00:28:42.500, 0.89, 0.018, 1.325, -0.122, 8.362, 0, 1.373, -42.523, 34.623, 0.000, 0.000, -3211.264, 25.12, 0.8833, 0.12283, -0.35532, 0.27988,
 12:21:27.738,c3:a3:c5:ed:f8:8e, 2015-01-01 00:31:22.900, -0.857, -0.032, -0.684, 0.427, -59.509, -0.244, -177.089, 42.034, -89.242, 0.000, 0.000, -3211.264, 25, 0.24615, -0.6669, 0.66867, 0.21777,
 12:21:27.753,ef:e4:2c:bf:73:a9, 2015-01-01 00:28:42.500, 0.875, 0.021, 1.325, -0.183, 11.353, 0, 1.346, -41.792, 34.645, 0.000, 0.000, -3211.264, 25.12, 0.8833, 0.12283, -0.35532, 0.27988,
 12:21:27.783,ef:e4:2c:bf:73:a9, 2015-01-01 00:28:42.500, 0.859, 0.025, 1.325, -0.122, 13.428, 0, 1.313, -40.941, 34.667, 0.000, 0.000, -3211.264, 25.12, 0.8833, 0.12283, -0.35532, 0.27988,
 12:21:27.843,ef:e4:2c:bf:73:a9, 2015-01-01 00:28:42.500, 0.855, 0.024, 1.326, -0.244, 14.709, 0, 1.28, -40.029, 34.695, 0.000, 0.000, -3211.264, 25.12, 0.8833, 0.12283, -0.35532, 0.27988,
 12:21:27.858,c3:a3:c5:ed:f8:8e, 2015-01-01 00:31:22.900, -0.905, -0.032, -0.633, 0.427, -63.416, -0.244, -176.907, 45.209, -89.231, 0.000, 0.000, -3211.264, 25, 0.24615, -0.6669, 0.66867, 0.21777,
 12:21:27.889,c3:a3:c5:ed:f8:8e, 2015-01-01 00:31:22.900, -0.919, -0.031, -0.585, 0.488, -61.035, -0.183, -176.699, 48.395, -89.182, 0.000, 0.000, -3211.264, 25, 0.24615, -0.6669, 0.66867, 0.21777,
 12:21:27.889,c3:a3:c5:ed:f8:8e, 2015-01-01 00:31:22.900, -0.935, -0.034, -0.555, 0.427, -59.448, -0.183, -176.462, 51.438, -89.11, 0.000, 0.000, -3211.264, 25, 0.24615, -0.6669, 0.66867, 0.21777,
 12:21:27.919,c3:a3:c5:ed:f8:8e, 2015-01-01 00:31:22.900, -0.996, -0.031, -0.524, 0.366, -61.89, -0.244, -176.182, 54.542, -88.984, 0.000, 0.000, -3211.264, 25, 0.24615, -0.6669, 0.66867, 0.21777,
 12:21:27.934,ef:e4:2c:bf:73:a9, 2015-01-01 00:28:42.500, 0.835, 0.021, 1.328, -0.244, 16.296, 0, 1.247, -39.067, 34.722, 0.000, 0.000, -3211.264, 25.12, 0.89667, 0.11108, -0.32059, 0.28415,
 12:21:27.962,ef:e4:2c:bf:73:a9, 2015-01-01 00:28:42.860, 0.809, 0.021, 1.329, -0.244, 19.348, 0, 1.208, -37.996, 34.75, 0.000, 0.000, -3211.264, 25.12, 0.89667, 0.11108, -0.32059, 0.28415,
 12:21:27.992,ef:e4:2c:bf:73:a9, 2015-01-01 00:28:42.860, 0.796, 0.021, 1.328, -0.183, 19.958, 0, 1.176, -36.865, 34.783, 0.000, 0.000, -3211.264, 25.12, 0.89667, 0.11108, -0.32059, 0.28415,
 12:21:28.052,ef:e4:2c:bf:73:a9, 2015-01-01 00:28:42.860, 0.787, 0.021, 1.331, -0.305, 20.63, 0, 1.137, -35.733, 34.81, 0.000, 0.000, -3211.264, 25.12, 0.89667, 0.11108, -0.32059, 0.28415,
 12:21:28.069,c3:a3:c5:ed:f8:8e, 2015-01-01 00:31:22.900, -1.007, -0.028, -0.444, 0.427, -62.195, -0.244, -175.842, 57.739, -88.775, 0.000, 0.000, -3211.264, 25, 0.24615, -0.6669, 0.66867, 0.21777,
 12:21:28.069,c3:a3:c5:ed:f8:8e, 2015-01-01 00:31:22.900, -1.013, -0.032, -0.412, 0.488, -59.143, -0.183, -175.441, 60.798, -88.511, 0.000, 0.000, -3211.264, 25, 0.24615, -0.6669, 0.66867, 0.21777,
 12:21:28.098,c3:a3:c5:ed:f8:8e, 2015-01-01 00:31:22.900, -1.031, -0.034, -0.37, 0.488, -59.937, 0, -174.957, 63.792, -88.16, 0.000, 0.000, -3211.264, 25, 0.36691, -0.60931, 0.62115, 0.32886,
 12:21:28.128,c3:a3:c5:ed:f8:8e, 2015-01-01 00:31:22.900, -1.078, -0.032, -0.326, 0.427, -62.439, 0, -174.342, 66.885, -87.671, 0.000, 0.000, -3211.264, 25, 0.36691, -0.60931, 0.62115, 0.32886,
 12:21:28.172,ef:e4:2c:bf:73:a9, 2015-01-01 00:28:42.860, 0.748, 0.023, 1.33, -0.305, 22.339, 0, 1.104, -34.547, 34.838, 0.000, 0.000, -3211.264, 25.12, 0.89667, 0.11108, -0.32059, 0.28415,
 12:21:28.202,ef:e4:2c:bf:73:a9, 2015-01-01 00:28:42.860, 0.724, 0.021, 1.33, -0.366, 24.475, 0, 1.066, -33.272, 34.865, 0.000, 0.000, -3211.264, 25.12, 0.89667, 0.11108, -0.32059, 0.28415,
 12:21:28.204,ef:e4:2c:bf:73:a9, 2015-01-01 00:28:42.860, 0.709, 0.02, 1.328, -0.305, 23.926, 0, 1.033, -31.998, 34.893, 0.000, 0.000, -3211.264, 25.12, 0.89667, 0.11108, -0.32059, 0.28415,
 12:21:28.234,ef:e4:2c:bf:73:a9, 2015-01-01 00:28:42.860, 0.708, 0.022, 1.328, -0.305, 25.024, 0, 1, -30.74, 34.92, 0.000, 0.000, -3211.264, 25.12, 0.89667, 0.11108, -0.32059, 0.28415,
 12:21:28.277,c3:a3:c5:ed:f8:8e, 2015-01-01 00:31:23.350, -1.065, -0.03, -0.242, 0.488, -59.875, 0, -173.535, 69.966, -86.984, 0.000, 0.000, -3211.264, 25, 0.36691, -0.60931, 0.62115, 0.32886,
 12:21:28.277,c3:a3:c5:ed:f8:8e, 2015-01-01 00:31:23.350, -1.066, -0.035, -0.203, 0.183, -58.96, 0, -172.507, 72.889, -86.072, 0.000, 0.000, -3211.264, 25, 0.36691, -0.60931, 0.62115, 0.32886,
 12:21:28.307,c3:a3:c5:ed:f8:8e, 2015-01-01 00:31:23.350, -1.103, -0.026, -0.177, 0.366, -60.547, 0, -171.024, 75.855, -84.688, 0.000, 0.000, -3211.264, 25, 0.36691, -0.60931, 0.62115, 0.32886,
 12:21:28.322,ef:e4:2c:bf:73:a9, 2015-01-01 00:28:42.860, 0.652, 0.025, 1.329, -0.366, 26.733, 0, 0.972, -29.416, 34.948, 0.000, 0.000, -3211.264, 25.12, 0.89667, 0.11108, -0.32059, 0.28415,
 12:21:28.338,c3:a3:c5:ed:f8:8e, 2015-01-01 00:31:23.350, -1.112, -0.033, -0.085, 0.549, -63.171, 0, -168.602, 78.959, -82.348, 0.000, 0.000, -3211.264, 25, 0.36691, -0.60931, 0.62115, 0.32886,
 12:21:28.353,ef:e4:2c:bf:73:a9, 2015-01-01 00:28:42.860, 0.634, 0.02, 1.323, -0.366, 28.137, 0, 0.939, -28.004, 34.98, 0.000, 0.000, -3211.264, 25.12, 0.92273, 0.08295, -0.23633, 0.29279,
 12:21:28.368,c3:a3:c5:ed:f8:8e, 2015-01-01 00:31:23.350, -1.075, -0.034, -0.038, 0.488, -59.082, 0, -164.471, 81.942, -78.3, 0.000, 0.000, -3211.264, 25, 0.36691, -0.60931, 0.62115, 0.32886,
 12:21:28.413,ef:e4:2c:bf:73:a9, 2015-01-01 00:28:42.860, 0.632, 0.02, 1.321, -0.366, 26.794, 0, 0.906, -26.653, 35.002, 0.000, 0.000, -3211.264, 25.12, 0.92273, 0.08295, -0.23633, 0.29279,
 12:21:28.442,ef:e4:2c:bf:73:a9, 2015-01-01 00:28:43.335, 0.598, 0.019, 1.32, -0.366, 28.931, 0, 0.879, -25.307, 35.03, 0.000, 0.000, -3211.264, 25.12, 0.92273, 0.08295, -0.23633, 0.29279,
 12:21:28.457,c3:a3:c5:ed:f8:8e, 2015-01-01 00:31:23.350, -1.081, -0.028, -0.004, 0.366, -59.998, 0, -156.281, 84.699, -70.17, 0.000, 0.000, -3211.264, 25, 0.50723, -0.50882, 0.52515, 0.45596,
 12:21:28.487,c3:a3:c5:ed:f8:8e, 2015-01-01 00:31:23.350, -1.117, -0.029, 0.048, 0.427, -65.125, 0, -129.721, 87.27, -43.583, 0.000, 0.000, -3211.264, 25, 0.50723, -0.50882, 0.52515, 0.45596,
 12:21:28.533,ef:e4:2c:bf:73:a9, 2015-01-01 00:28:43.335, 0.542, 0.021, 1.315, -0.366, 31.433, 0, 0.851, -23.829, 35.057, 0.000, 0.000, -3211.264, 25.12, 0.92273, 0.08295, -0.23633, 0.29279,
 12:21:28.547,c3:a3:c5:ed:f8:8e, 2015-01-01 00:31:23.705, -1.086, -0.027, 0.143, 0.488, -61.401, 0, -55.706, 87.484, 30.624, 0.000, 0.000, -3211.264, 25, 0.50723, -0.50882, 0.52515, 0.45596,
 12:21:28.563,ef:e4:2c:bf:73:a9, 2015-01-01 00:28:43.335, 0.548, 0.02, 1.307, -0.366, 29.297, 0, 0.824, -22.368, 35.085, 0.000, 0.000, -3211.264, 25.12, 0.92273, 0.08295, -0.23633, 0.29279,
 12:21:28.577,c3:a3:c5:ed:f8:8e, 2015-01-01 00:31:23.705, -1.055, -0.03, 0.162, 0.427, -58.411, 0, -25.406, 85.172, 60.941, 0.000, 0.000, -3211.264, 25, 0.50723, -0.50882, 0.52515, 0.45596,
 12:21:28.592,ef:e4:2c:bf:73:a9, 2015-01-01 00:28:43.335, 0.521, 0.018, 1.308, -0.366, 28.748, 0, 0.802, -21.006, 35.107, 0.000, 0.000, -3211.264, 25.12, 0.92273, 0.08295, -0.23633, 0.29279,
 12:21:28.668,c3:a3:c5:ed:f8:8e, 2015-01-01 00:31:23.705, -1.075, -0.025, 0.212, 0.488, -63.904, 0, -15.645, 82.359, 70.724, 0.000, 0.000, -3211.264, 25, 0.50723, -0.50882, 0.52515, 0.45596,
 12:21:28.683,ef:e4:2c:bf:73:a9, 2015-01-01 00:28:43.335, 0.468, 0.019, 1.3, -0.366, 32.288, 0, 0.78, -19.567, 35.129, 0.000, 0.000, -3211.264, 25.12, 0.92273, 0.08295, -0.23633, 0.29279,
 12:21:28.713,ef:e4:2c:bf:73:a9, 2015-01-01 00:28:43.335, 0.447, 0.018, 1.29, -0.366, 32.349, 0, 0.758, -18.067, 35.156, 0.000, 0.000, -3211.264, 25.12, 0.92273, 0.08295, -0.23633, 0.29279,
 12:21:28.728,c3:a3:c5:ed:f8:8e, 2015-01-01 00:31:23.705, -1.057, -0.024, 0.283, 0.488, -65.186, 0, -10.97, 79.25, 75.449, 0.000, 0.000, -3211.264, 25, 0.50723, -0.50882, 0.52515, 0.45596,
 12:21:28.728,c3:a3:c5:ed:f8:8e, 2015-01-01 00:31:23.705, -1.019, -0.026, 0.345, 0.366, -58.716, 0, -8.487, 76.245, 77.97, 0.000, 0.000, -3211.264, 25, 0.50723, -0.50882, 0.52515, 0.45596,
 12:21:28.772,ef:e4:2c:bf:73:a9, 2015-01-01 00:28:43.335, 0.448, 0.019, 1.283, -0.366, 29.236, 0, 0.736, -16.677, 35.178, 0.000, 0.000, -3211.264, 25.12, 0.92273, 0.08295, -0.23633, 0.29279,
 12:21:28.788,c3:a3:c5:ed:f8:8e, 2015-01-01 00:31:23.705, -0.999, -0.025, 0.361, 0.427, -59.021, 0, -6.965, 73.394, 79.525, 0.000, 0.000, -3211.264, 25, 0.50723, -0.50882, 0.52515, 0.45596,
 12:21:28.834,ef:e4:2c:bf:73:a9, 2015-01-01 00:28:43.335, 0.402, 0.021, 1.279, -0.366, 30.029, 0, 0.72, -15.342, 35.2, 0.000, 0.000, -3211.264, 25.12, 0.94403, 0.04703, -0.12756, 0.30032,
 12:21:28.848,c3:a3:c5:ed:f8:8e, 2015-01-01 00:31:23.705, -1.009, -0.024, 0.426, 0.549, -64.697, 0, -5.845, 70.373, 80.684, 0.000, 0.000, -3211.264, 25, 0.60425, -0.40271, 0.40964, 0.55206,
 12:21:28.862,ef:e4:2c:bf:73:a9, 2015-01-01 00:28:43.335, 0.355, 0.018, 1.266, -0.366, 32.654, 0, 0.698, -13.909, 35.222, 0.000, 0.000, -3211.264, 25.12, 0.94403, 0.04703, -0.12756, 0.30032,
 12:21:28.908,c3:a3:c5:ed:f8:8e, 2015-01-01 00:31:24.065, -0.958, -0.023, 0.492, 0.549, -62.805, 0, -5.004, 67.253, 81.562, 0.000, 0.000, -3211.264, 25, 0.60425, -0.40271, 0.40964, 0.55206,
 12:21:28.938,c3:a3:c5:ed:f8:8e, 2015-01-01 00:31:24.065, -0.912, -0.022, 0.531, 0.366, -57.556, 0, -4.406, 64.358, 82.194, 0.000, 0.000, -3211.264, 25, 0.60425, -0.40271, 0.40964, 0.55206,
 12:21:28.967,c3:a3:c5:ed:f8:8e, 2015-01-01 00:31:24.065, -0.903, -0.024, 0.548, 0.427, -60.181, 0, -3.933, 61.507, 82.694, 0.000, 0.000, -3211.264, 25, 0.60425, -0.40271, 0.40964, 0.55206,
 12:21:28.983,ef:e4:2c:bf:73:a9, 2015-01-01 00:28:43.780, 0.355, 0.016, 1.253, -0.305, 29.724, 0, 0.681, -12.497, 35.244, 0.000, 0.000, -3211.264, 25.12, 0.94403, 0.04703, -0.12756, 0.30032,
 12:21:28.983,ef:e4:2c:bf:73:a9, 2015-01-01 00:28:43.780, 0.336, 0.016, 1.248, -0.366, 28.809, 0, 0.665, -11.223, 35.261, 0.000, 0.000, -3211.264, 25.12, 0.94403, 0.04703, -0.12756, 0.30032,
 12:21:29.012,ef:e4:2c:bf:73:a9, 2015-01-01 00:28:43.780, 0.287, 0.018, 1.235, -0.427, 31.677, 0, 0.643, -9.915, 35.283, 0.000, 0.000, -3211.264, 25.12, 0.94403, 0.04703, -0.12756, 0.30032,
 12:21:29.043,ef:e4:2c:bf:73:a9, 2015-01-01 00:28:43.780, 0.266, 0.019, 1.221, -0.366, 31.738, 0, 0.626, -8.536, 35.305, 0.000, 0.000, -3211.264, 25.12, 0.94403, 0.04703, -0.12756, 0.30032,
 12:21:29.059,c3:a3:c5:ed:f8:8e, 2015-01-01 00:31:24.065, -0.896, -0.023, 0.627, 0.549, -65.063, 0, -3.521, 58.414, 83.139, 0.000, 0.000, -3211.264, 25, 0.60425, -0.40271, 0.40964, 0.55206,
 12:21:29.133,ef:e4:2c:bf:73:a9, 2015-01-01 00:28:43.780, 0.276, 0.017, 1.209, -0.305, 27.649, 0, 0.615, -7.273, 35.321, 0.000, 0.000, -3211.264, 25.12, 0.94403, 0.04703, -0.12756, 0.30032,
 12:21:29.147,c3:a3:c5:ed:f8:8e, 2015-01-01 00:31:24.065, -0.812, -0.021, 0.673, 0.427, -60.303, 0, -3.192, 55.366, 83.502, 0.000, 0.000, -3211.264, 25, 0.60425, -0.40271, 0.40964, 0.55206,
 12:21:29.148,c3:a3:c5:ed:f8:8e, 2015-01-01 00:31:24.065, -0.767, -0.021, 0.683, 0.488, -57.617, 0, -2.928, 52.575, 83.787, 0.000, 0.000, -3211.264, 25, 0.60425, -0.40271, 0.40964, 0.55206,
 12:21:29.163,ef:e4:2c:bf:73:a9, 2015-01-01 00:28:43.780, 0.225, 0.016, 1.203, -0.305, 28.137, 0, 0.604, -6.114, 35.338, 0.000, 0.000, -3211.264, 25.12, 0.9516, 0.0192, -0.04306, 0.3035,
 12:21:29.177,c3:a3:c5:ed:f8:8e, 2015-01-01 00:31:24.065, -0.776, -0.021, 0.708, 0.488, -63.843, 0, -2.697, 49.642, 84.045, 0.000, 0.000, -3211.264, 25, 0.60425, -0.40271, 0.40964, 0.55206,
 12:21:29.193,ef:e4:2c:bf:73:a9, 2015-01-01 00:28:43.780, 0.184, 0.015, 1.182, -0.488, 31.189, 0, 0.588, -4.85, 35.359, 0.000, 0.000, -3211.264, 25.12, 0.9516, 0.0192, -0.04306, 0.3035,
 12:21:29.268,c3:a3:c5:ed:f8:8e, 2015-01-01 00:31:24.065, -0.731, -0.019, 0.802, 0.427, -63.171, 0, -2.483, 46.467, 84.287, 0.000, 0.000, -3211.264, 25, 0.60425, -0.40271, 0.40964, 0.55206,
 12:21:29.284,ef:e4:2c:bf:73:a9, 2015-01-01 00:28:44.140, 0.198, 0.017, 1.168, -0.427, 28.381, 0, 0.571, -3.598, 35.376, 0.000, 0.000, -3211.264, 25.12, 0.9516, 0.0192, -0.04306, 0.3035,
 12:21:29.312,ef:e4:2c:bf:73:a9, 2015-01-01 00:28:44.140, 0.198, 0.018, 1.161, -0.366, 25.574, 0, 0.56, -2.532, 35.392, 0.000, 0.000, -3211.264, 25.12, 0.9516, 0.0192, -0.04306, 0.3035,
 12:21:29.329,c3:a3:c5:ed:f8:8e, 2015-01-01 00:31:24.065, -0.627, -0.02, 0.814, 0.366, -57.19, 0, -2.313, 43.572, 84.479, 0.000, 0.000, -3211.264, 25, 0.67831, -0.27267, 0.27167, 0.62579,
 12:21:29.331,c3:a3:c5:ed:f8:8e, 2015-01-01 00:31:24.065, -0.624, -0.02, 0.808, 0.488, -61.951, 0, -2.17, 40.792, 84.65, 0.000, 0.000, -3211.264, 25, 0.67831, -0.27267, 0.27167, 0.62579,
 12:21:29.375,ef:e4:2c:bf:73:a9, 2015-01-01 00:28:44.140, 0.119, 0.017, 1.15, -0.366, 28.198, 0, 0.549, -1.45, 35.409, 0.000, 0.000, -3211.264, 25.12, 0.9516, 0.0192, -0.04306, 0.3035,
 12:21:29.388,c3:a3:c5:ed:f8:8e, 2015-01-01 00:31:24.540, -0.596, -0.019, 0.865, 0.549, -67.871, -0.305, -2.032, 37.634, 84.814, 0.000, 0.000, -3211.264, 25, 0.67831, -0.27267, 0.27167, 0.62579,
 12:21:29.404,ef:e4:2c:bf:73:a9, 2015-01-01 00:28:44.140, 0.116, 0.013, 1.126, -0.427, 27.649, 0, 0.533, -0.275, 35.425, 0.000, 0.000, -3211.264, 25.12, 0.9516, 0.0192, -0.04306, 0.3035,
 12:21:29.463,ef:e4:2c:bf:73:a9, 2015-01-01 00:28:44.140, 0.136, 0.013, 1.117, -0.366, 23.865, 0, 0.522, 0.736, 35.442, 0.000, 0.000, -3211.264, 25.12, 0.9516, 0.0192, -0.04306, 0.3035,
 12:21:29.477,c3:a3:c5:ed:f8:8e, 2015-01-01 00:31:24.540, -0.516, -0.017, 0.92, 0.366, -58.899, -0.183, -1.917, 34.53, 84.946, 0.000, 0.000, -3211.264, 25, 0.67831, -0.27267, 0.27167, 0.62579,
 12:21:29.507,c3:a3:c5:ed:f8:8e, 2015-01-01 00:31:24.540, -0.457, -0.018, 0.901, 0.366, -57.739, -0.122, -1.824, 31.761, 85.056, 0.000, 0.000, -3211.264, 25, 0.67831, -0.27267, 0.27167, 0.62579,
 12:21:29.523,ef:e4:2c:bf:73:a9, 2015-01-01 00:28:44.140, 0.096, 0.016, 1.107, -0.427, 24.902, 0, 0.511, 1.653, 35.453, 0.000, 0.000, -3211.264, 25.12, 0.95236, -0.0004, 0.01593, 0.30438,
 12:21:29.537,c3:a3:c5:ed:f8:8e, 2015-01-01 00:31:24.540, -0.466, -0.019, 0.936, 0.61, -67.932, -0.305, -1.73, 28.713, 85.172, 0.000, 0.000, -3211.264, 25, 0.67831, -0.27267, 0.27167, 0.62579,
 12:21:29.567,c3:a3:c5:ed:f8:8e, 2015-01-01 00:31:24.540, -0.362, -0.017, 0.992, 0.488, -64.575, -0.244, -1.642, 25.499, 85.276, 0.000, 0.000, -3211.264, 25, 0.67831, -0.27267, 0.27167, 0.62579,
 12:21:29.582,ef:e4:2c:bf:73:a9, 2015-01-01 00:28:44.465, 0.059, 0.016, 1.093, -0.427, 26.306, 0, 0.5, 2.659, 35.469, 0.000, 0.000, -3211.264, 25.12, 0.95236, -0.0004, 0.01593, 0.30438,
 12:21:29.642,ef:e4:2c:bf:73:a9, 2015-01-01 00:28:44.465, 0.069, 0.013, 1.076, -0.366, 21.545, 0, 0.489, 3.593, 35.48, 0.000, 0.000, -3211.264, 25.12, 0.95236, -0.0004, 0.01593, 0.30438,
 12:21:29.642,ef:e4:2c:bf:73:a9, 2015-01-01 00:28:44.465, 0.051, 0.011, 1.067, -0.305, 20.264, 0, 0.483, 4.356, 35.497, 0.000, 0.000, -3211.264, 25.12, 0.95236, -0.0004, 0.01593, 0.30438,
 12:21:29.658,c3:a3:c5:ed:f8:8e, 2015-01-01 00:31:24.540, -0.301, -0.016, 0.976, 0.366, -57.556, -0.244, -1.577, 22.676, 85.358, 0.000, 0.000, -3211.264, 25, 0.71954, -0.13983, 0.13156, 0.6673,
 12:21:29.717,c3:a3:c5:ed:f8:8e, 2015-01-01 00:31:24.540, -0.273, -0.015, 0.972, 0.427, -61.34, -0.244, -1.511, 19.808, 85.435, 0.000, 0.000, -3211.264, 25, 0.71954, -0.13983, 0.13156, 0.6673,
 12:21:29.733,ef:e4:2c:bf:73:a9, 2015-01-01 00:28:44.465, 0.023, 0.012, 1.051, -0.366, 21.24, 0, 0.472, 5.12, 35.508, 0.000, 0.000, -3211.264, 25.12, 0.95236, -0.0004, 0.01593, 0.30438,
 12:21:29.747,c3:a3:c5:ed:f8:8e, 2015-01-01 00:31:24.895, -0.239, -0.015, 1.016, 0.488, -64.209, -0.183, -1.445, 16.699, 85.523, 0.000, 0.000, -3211.264, 25, 0.71954, -0.13983, 0.13156, 0.6673,
 12:21:29.777,c3:a3:c5:ed:f8:8e, 2015-01-01 00:31:24.895, -0.146, -0.015, 1.024, 0.366, -59.265, -0.183, -1.395, 13.749, 85.594, 0.000, 0.000, -3211.264, 25, 0.71954, -0.13983, 0.13156, 0.6673,
 12:21:29.793,ef:e4:2c:bf:73:a9, 2015-01-01 00:28:44.465, 0.024, 0.014, 1.04, -0.366, 19.958, 0, 0.461, 5.872, 35.519, 0.000, 0.000, -3211.264, 25.12, 0.95236, -0.0004, 0.01593, 0.30438,
 12:21:29.822,ef:e4:2c:bf:73:a9, 2015-01-01 00:28:44.465, 0.023, 0.013, 1.031, -0.122, 16.846, 0, 0.456, 6.504, 35.53, 0.000, 0.000, -3211.264, 25.12, 0.95236, -0.0004, 0.01593, 0.30438,
 12:21:29.853,ef:e4:2c:bf:73:a9, 2015-01-01 00:28:44.465, 0.001, 0.012, 1.024, -0.183, 16.418, 0, 0.456, 7.064, 35.541, 0.000, 0.000, -3211.264, 25.12, 0.95236, -0.0004, 0.01593, 0.30438,
 12:21:29.868,c3:a3:c5:ed:f8:8e, 2015-01-01 00:31:24.895, -0.1, -0.015, 1.003, 0.366, -58.838, -0.305, -1.34, 10.964, 85.655, 0.000, 0.000, -3211.264, 25, 0.71954, -0.13983, 0.13156, 0.6673,
 12:21:29.898,c3:a3:c5:ed:f8:8e, 2015-01-01 00:31:24.895, -0.064, -0.013, 1.005, 0.549, -62.439, -0.244, -1.296, 8.026, 85.715, 0.000, 0.000, -3211.264, 25, 0.71954, -0.13983, 0.13156, 0.6673,
 12:21:29.944,ef:e4:2c:bf:73:a9, 2015-01-01 00:28:44.465, -0.014, 0.01, 1.008, -0.244, 16.174, 0, 0.456, 7.608, 35.552, 0.000, 0.000, -3211.264, 25.12, 0.95023, -0.01633, 0.06396, 0.30435,
 12:21:29.959,c3:a3:c5:ed:f8:8e, 2015-01-01 00:31:24.895, -0.007, -0.013, 1.031, 0.427, -61.523, -0.183, -1.252, 4.977, 85.776, 0.000, 0.000, -3211.264, 25, 0.71954, -0.13983, 0.13156, 0.6673,
 12:21:29.972,ef:e4:2c:bf:73:a9, 2015-01-01 00:28:44.855, -0.011, 0.009, 0.999, -0.244, 14.343, 0, 0.45, 8.102, 35.563, 0.000, 0.000, -3211.264, 25.12, 0.95023, -0.01633, 0.06396, 0.30435,
 12:21:29.989,c3:a3:c5:ed:f8:8e, 2015-01-01 00:31:24.895, 0.072, -0.013, 1.014, 0.488, -58.594, -0.122, -1.208, 2.109, 85.836, 0.000, 0.000, -3211.264, 25, 0.71954, -0.13983, 0.13156, 0.6673,
 12:21:30.002,ef:e4:2c:bf:73:a9, 2015-01-01 00:28:44.855, -0.014, 0.013, 0.991, -0.244, 12.512, 0, 0.445, 8.503, 35.568, 0.000, 0.000, -3211.264, 25.12, 0.95023, -0.01633, 0.06396, 0.30435,
 12:21:30.063,ef:e4:2c:bf:73:a9, 2015-01-01 00:28:44.855, -0.031, 0.013, 0.987, -0.122, 12.146, 0, 0.439, 8.855, 35.579, 0.000, 0.000, -3211.264, 25.12, 0.95023, -0.01633, 0.06396, 0.30435,
 12:21:30.078,c3:a3:c5:ed:f8:8e, 2015-01-01 00:31:24.895, 0.104, -0.014, 0.993, 0.488, -61.523, -0.244, -1.176, -0.775, 85.891, 0.000, 0.000, -3211.264, 25, 0.73175, 0.00629, -0.02188, 0.68112,
 12:21:30.108,c3:a3:c5:ed:f8:8e, 2015-01-01 00:31:25.285, 0.15, -0.014, 0.997, 0.488, -64.148, -0.305, -1.137, -3.84, 85.941, 0.000, 0.000, -3211.264, 25, 0.73175, 0.00629, -0.02188, 0.68112,
 12:21:30.123,ef:e4:2c:bf:73:a9, 2015-01-01 00:28:44.855, -0.034, 0.01, 0.977, -0.122, 10.681, 0, 0.439, 9.174, 35.585, 0.000, 0.000, -3211.264, 25.12, 0.95023, -0.01633, 0.06396, 0.30435,
 12:21:30.138,c3:a3:c5:ed:f8:8e, 2015-01-01 00:31:25.285, 0.213, -0.012, 0.994, 0.427, -59.875, -0.244, -1.11, -6.839, 85.99, 0.000, 0.000, -3211.264, 25, 0.73175, 0.00629, -0.02188, 0.68112,
 12:21:30.184,ef:e4:2c:bf:73:a9, 2015-01-01 00:28:44.855, -0.035, 0.009, 0.971, -0.183, 9.094, 0, 0.439, 9.41, 35.596, 0.000, 0.000, -3211.264, 25.12, 0.95023, -0.01633, 0.06396, 0.30435,
 12:21:30.197,c3:a3:c5:ed:f8:8e, 2015-01-01 00:31:25.285, 0.279, -0.011, 0.963, 0.488, -59.448, -0.183, -1.082, -9.706, 86.034, 0.000, 0.000, -3211.264, 25, 0.73175, 0.00629, -0.02188, 0.68112,
 12:21:30.213,ef:e4:2c:bf:73:a9, 2015-01-01 00:28:44.855, -0.041, 0.01, 0.963, -0.244, 7.935, 0, 0.434, 9.575, 35.601, 0.000, 0.000, -3211.264, 25.12, 0.95023, -0.01633, 0.06396, 0.30435,
 12:21:30.257,c3:a3:c5:ed:f8:8e, 2015-01-01 00:31:25.285, 0.29, -0.011, 0.941, 0.488, -64.148, -0.183, -1.055, -12.722, 86.089, 0.000, 0.000, -3211.264, 25, 0.73175, 0.00629, -0.02188, 0.68112,
 12:21:30.302,ef:e4:2c:bf:73:a9, 2015-01-01 00:28:44.855, -0.046, 0.011, 0.959, -0.122, 7.324, 0, 0.434, 9.684, 35.607, 0.000, 0.000, -3211.264, 25.12, 0.95023, -0.01633, 0.06396, 0.30435,
 12:21:30.318,c3:a3:c5:ed:f8:8e, 2015-01-01 00:31:25.285, 0.365, -0.012, 0.948, 0.488, -63.354, -0.183, -1.033, -15.837, 86.138, 0.000, 0.000, -3211.264, 25, 0.73175, 0.00629, -0.02188, 0.68112,
 12:21:30.332,ef:e4:2c:bf:73:a9, 2015-01-01 00:28:44.855, -0.044, 0.012, 0.956, -0.061, 5.31, 0, 0.439, 9.717, 35.612, 0.000, 0.000, -3211.264, 25.12, 0.94873, -0.02225, 0.08173, 0.30435,
 12:21:30.348,c3:a3:c5:ed:f8:8e, 2015-01-01 00:31:25.285, 0.412, -0.012, 0.901, 0.427, -59.143, -0.244, -1.016, -18.737, 86.177, 0.000, 0.000, -3211.264, 25, 0.73175, 0.00629, -0.02188, 0.68112,
 12:21:30.362,ef:e4:2c:bf:73:a9, 2015-01-01 00:28:44.855, -0.048, 0.011, 0.954, 0, 4.272, 0, 0.445, 9.701, 35.618, 0.000, 0.000, -3211.264, 25.12, 0.94873, -0.02225, 0.08173, 0.30435,
 12:21:30.378,c3:a3:c5:ed:f8:8e, 2015-01-01 00:31:25.285, 0.456, -0.011, 0.875, 0.427, -61.096, -0.244, -1, -21.665, 86.221, 0.000, 0.000, -3211.264, 25, 0.73175, 0.00629, -0.02188, 0.68112,
 12:21:30.422,ef:e4:2c:bf:73:a9, 2015-01-01 00:28:45.300, -0.052, 0.009, 0.951, -0.122, 3.052, 0, 0.45, 9.651, 35.623, 0.000, 0.000, -3211.264, 25.12, 0.94873, -0.02225, 0.08173, 0.30435,
 12:21:30.466,c3:a3:c5:ed:f8:8e, 2015-01-01 00:31:25.640, 0.481, -0.009, 0.853, 0.488, -63.293, -0.183, -0.989, -24.73, 86.265, 0.000, 0.000, -3211.264, 25, 0.7157, 0.13306, -0.15475, 0.66785,
 12:21:30.482,ef:e4:2c:bf:73:a9, 2015-01-01 00:28:45.300, -0.05, 0.009, 0.948, -0.183, 2.136, 0, 0.445, 9.558, 35.623, 0.000, 0.000, -3211.264, 25.12, 0.94873, -0.02225, 0.08173, 0.30435,
 12:21:30.498,c3:a3:c5:ed:f8:8e, 2015-01-01 00:31:25.640, 0.549, -0.009, 0.833, 0.488, -60.364, -0.122, -0.978, -27.735, 86.314, 0.000, 0.000, -3211.264, 25, 0.7157, 0.13306, -0.15475, 0.66785,
 12:21:30.542,ef:e4:2c:bf:73:a9, 2015-01-01 00:28:45.300, -0.049, 0.011, 0.946, -0.122, 0.671, 0, 0.45, 9.415, 35.629, 0.000, 0.000, -3211.264, 25.12, 0.94873, -0.02225, 0.08173, 0.30435,
 12:21:30.556,c3:a3:c5:ed:f8:8e, 2015-01-01 00:31:25.640, 0.587, -0.012, 0.779, 0.488, -59.57, -0.244, -0.967, -30.619, 86.358, 0.000, 0.000, -3211.264, 25, 0.7157, 0.13306, -0.15475, 0.66785,
 12:21:30.572,ef:e4:2c:bf:73:a9, 2015-01-01 00:28:45.300, -0.049, 0.012, 0.947, 0, -0.061, 0, 0.45, 9.234, 35.629, 0.000, 0.000, -3211.264, 25.12, 0.94873, -0.02225, 0.08173, 0.30435,
 12:21:30.586,c3:a3:c5:ed:f8:8e, 2015-01-01 00:31:25.640, 0.608, -0.011, 0.748, 0.427, -61.646, -0.305, -0.961, -33.602, 86.396, 0.000, 0.000, -3211.264, 25, 0.7157, 0.13306, -0.15475, 0.66785,
 12:21:30.602,ef:e4:2c:bf:73:a9, 2015-01-01 00:28:45.300, -0.048, 0.013, 0.948, 0, -1.221, 0, 0.461, 9.009, 35.634, 0.000, 0.000, -3211.264, 25.12, 0.94873, -0.02225, 0.08173, 0.30435,
 12:21:30.662,ef:e4:2c:bf:73:a9, 2015-01-01 00:28:45.300, -0.048, 0.009, 0.948, -0.244, -2.197, 0, 0.461, 8.74, 35.634, 0.000, 0.000, -3211.264, 25.12, 0.94873, -0.02225, 0.08173, 0.30435,
 12:21:30.706,c3:a3:c5:ed:f8:8e, 2015-01-01 00:31:25.640, 0.646, -0.01, 0.723, 0.488, -62.256, -0.183, -0.967, -36.694, 86.446, 0.000, 0.000, -3211.264, 25, 0.7157, 0.13306, -0.15475, 0.66785,
 12:21:30.708,c3:a3:c5:ed:f8:8e, 2015-01-01 00:31:25.640, 0.705, -0.009, 0.683, 0.488, -59.204, -0.183, -0.972, -39.655, 86.495, 0.000, 0.000, -3211.264, 25, 0.7157, 0.13306, -0.15475, 0.66785,
 12:21:30.722,ef:e4:2c:bf:73:a9, 2015-01-01 00:28:45.300, -0.047, 0.007, 0.95, -0.122, -3.357, 0, 0.45, 8.427, 35.634, 0.000, 0.000, -3211.264, 25.12, 0.94937, -0.01917, 0.07275, 0.30484,
 12:21:30.738,c3:a3:c5:ed:f8:8e, 2015-01-01 00:31:25.640, 0.728, -0.011, 0.622, 0.488, -60.364, -0.183, -0.978, -42.578, 86.55, 0.000, 0.000, -3211.264, 25, 0.7157, 0.13306, -0.15475, 0.66785,
 12:21:30.782,ef:e4:2c:bf:73:a9, 2015-01-01 00:28:45.660, -0.04, 0.01, 0.953, 0, -4.272, 0, 0.456, 8.069, 35.64, 0.000, 0.000, -3211.264, 25.12, 0.94937, -0.01917, 0.07275, 0.30484,
 12:21:30.812,ef:e4:2c:bf:73:a9, 2015-01-01 00:28:45.660, -0.035, 0.012, 0.958, 0.061, -5.676, 0, 0.461, 7.657, 35.64, 0.000, 0.000, -3211.264, 25.12, 0.94937, -0.01917, 0.07275, 0.30484,
 12:21:30.828,c3:a3:c5:ed:f8:8e, 2015-01-01 00:31:25.640, 0.735, -0.012, 0.591, 0.488, -63.293, -0.244, -0.994, -45.654, 86.605, 0.000, 0.000, -3211.264, 25, 0.7157, 0.13306, -0.15475, 0.66785,
 12:21:30.871,ef:e4:2c:bf:73:a9, 2015-01-01 00:28:45.660, -0.037, 0.01, 0.962, 0.061, -6.104, 0, 0.472, 7.218, 35.64, 0.000, 0.000, -3211.264, 25.12, 0.94937, -0.01917, 0.07275, 0.30484,
 12:21:30.933,ef:e4:2c:bf:73:a9, 2015-01-01 00:28:45.660, -0.034, 0.01, 0.965, 0, -7.202, 0, 0.478, 6.751, 35.634, 0.000, 0.000, -3211.264, 25.12, 0.94937, -0.01917, 0.07275, 0.30484,
 12:21:30.948,c3:a3:c5:ed:f8:8e, 2015-01-01 00:31:25.640, 0.776, -0.012, 0.558, 0.427, -59.998, -0.244, -1.022, -48.741, 86.666, 0.000, 0.000, -3211.264, 25, 0.66974, 0.26727, -0.2955, 0.62656,
 12:21:30.950,c3:a3:c5:ed:f8:8e, 2015-01-01 00:31:25.640, 0.818, -0.011, 0.505, 0.488, -58.228, -0.183, -1.055, -51.641, 86.732, 0.000, 0.000, -3211.264, 25, 0.66974, 0.26727, -0.2955, 0.62656,
 12:21:30.950,c3:a3:c5:ed:f8:8e, 2015-01-01 00:31:25.640, 0.812, -0.011, 0.438, 0.549, -61.768, -0.183, -1.099, -54.635, 86.808, 0.000, 0.000, -3211.264, 25, 0.66974, 0.26727, -0.2955, 0.62656,
 12:21:30.992,ef:e4:2c:bf:73:a9, 2015-01-01 00:28:45.660, -0.02, 0.009, 0.969, 0.061, -8.362, 0, 0.483, 6.229, 35.634, 0.000, 0.000, -3211.264, 25.12, 0.94937, -0.01917, 0.07275, 0.30484,
 12:21:31.008,c3:a3:c5:ed:f8:8e, 2015-01-01 00:31:26.090, 0.838, -0.012, 0.404, 0.488, -61.34, -0.183, -1.154, -57.772, 86.902, 0.000, 0.000, -3211.264, 25, 0.66974, 0.26727, -0.2955, 0.62656,
 12:21:31.023,ef:e4:2c:bf:73:a9, 2015-01-01 00:28:45.660, -0.019, 0.011, 0.978, 0.122, -9.277, 0, 0.489, 5.663, 35.634, 0.000, 0.000, -3211.264, 25.12, 0.95099, -0.01022, 0.04596, 0.30542,
 12:21:31.083,ef:e4:2c:bf:73:a9, 2015-01-01 00:28:45.660, -0.018, 0.012, 0.983, 0.122, -9.521, 0, 0.5, 5.087, 35.629, 0.000, 0.000, -3211.264, 25.12, 0.95099, -0.01022, 0.04596, 0.30542,
 12:21:31.097,c3:a3:c5:ed:f8:8e, 2015-01-01 00:31:26.090, 0.881, -0.013, 0.355, 0.366, -57.861, -0.183, -1.23, -60.743, 87.001, 0.000, 0.000, -3211.264, 25, 0.66974, 0.26727, -0.2955, 0.62656,
 12:21:31.127,c3:a3:c5:ed:f8:8e, 2015-01-01 00:31:26.090, 0.882, -0.013, 0.28, 0.366, -60.181, -0.183, -1.335, -63.671, 87.122, 0.000, 0.000, -3211.264, 25, 0.66974, 0.26727, -0.2955, 0.62656,
 12:21:31.142,ef:e4:2c:bf:73:a9, 2015-01-01 00:28:45.985, -0.009, 0.01, 0.99, 0.122, -11.169, 0, 0.511, 4.466, 35.629, 0.000, 0.000, -3211.264, 25.12, 0.95099, -0.01022, 0.04596, 0.30542,
 12:21:31.158,c3:a3:c5:ed:f8:8e, 2015-01-01 00:31:26.090, 0.869, -0.013, 0.245, 0.488, -63.11, 0, -1.489, -66.797, 87.303, 0.000, 0.000, -3211.264, 25, 0.66974, 0.26727, -0.2955, 0.62656,
 12:21:31.172,ef:e4:2c:bf:73:a9, 2015-01-01 00:28:45.985, 0.005, 0.01, 0.996, 0.061, -12.451, 0, 0.516, 3.785, 35.623, 0.000, 0.000, -3211.264, 25.12, 0.95099, -0.01022, 0.04596, 0.30542,
 12:21:31.218,c3:a3:c5:ed:f8:8e, 2015-01-01 00:31:26.090, 0.898, -0.013, 0.199, 0.488, -58.899, 0, -1.703, -69.922, 87.539, 0.000, 0.000, -3211.264, 25, 0.66974, 0.26727, -0.2955, 0.62656,
 12:21:31.232,ef:e4:2c:bf:73:a9, 2015-01-01 00:28:45.985, 0.004, 0.01, 1.004, 0.122, -12.512, 0, 0.522, 3.076, 35.618, 0.000, 0.000, -3211.264, 25.12, 0.95099, -0.01022, 0.04596, 0.30542,
 12:21:31.262,ef:e4:2c:bf:73:a9, 2015-01-01 00:28:45.985, 0.012, 0.012, 1.015, 0.122, -13.794, 0, 0.533, 2.362, 35.612, 0.000, 0.000, -3211.264, 25.12, 0.95099, -0.01022, 0.04596, 0.30542,
 12:21:31.278,c3:a3:c5:ed:f8:8e, 2015-01-01 00:31:26.090, 0.92, -0.014, 0.141, 0.427, -57.251, 0, -1.983, -72.85, 87.841, 0.000, 0.000, -3211.264, 25, 0.5831, 0.40607, -0.44208, 0.5473,
 12:21:31.308,c3:a3:c5:ed:f8:8e, 2015-01-01 00:31:26.090, 0.894, -0.015, 0.072, 0.366, -62.378, 0, -2.411, -75.872, 88.281, 0.000, 0.000, -3211.264, 25, 0.5831, 0.40607, -0.44208, 0.5473,
 12:21:31.355,ef:e4:2c:bf:73:a9, 2015-01-01 00:28:45.985, 0.04, 0.011, 1.024, 0.183, -15.625, 0, 0.544, 1.571, 35.607, 0.000, 0.000, -3211.264, 25.12, 0.95099, -0.01022, 0.04596, 0.30542,
 12:21:31.368,c3:a3:c5:ed:f8:8e, 2015-01-01 00:31:26.505, 0.895, -0.014, 0.051, 0.427, -63.599, 0, -3.148, -79.107, 89.022, 0.000, 0.000, -3211.264, 25, 0.5831, 0.40607, -0.44208, 0.5473,
 12:21:31.383,ef:e4:2c:bf:73:a9, 2015-01-01 00:28:45.985, 0.038, 0.01, 1.038, 0.244, -16.174, 0, 0.555, 0.714, 35.601, 0.000, 0.000, -3211.264, 25.12, 0.95209, 0.00436, 0.00256, 0.30566,
